 z[m] p[mb] tp[K] q[g/kg] u[m/s] v[m/s]
 0.,  320, 1017.80  day,levels,pres0
    0.000 -999.000  288.300    9.450    3.000   -9.000
    5.000 -999.000  288.300    9.450    3.022   -8.972
   10.000 -999.000  288.300    9.450    3.043   -8.944
   15.000 -999.000  288.300    9.450    3.065   -8.916
   20.000 -999.000  288.300    9.450    3.086   -8.888
   25.000 -999.000  288.300    9.450    3.108   -8.860
   30.000 -999.000  288.300    9.450    3.129   -8.832
   35.000 -999.000  288.300    9.450    3.151   -8.804
   40.000 -999.000  288.300    9.450    3.172   -8.776
   45.000 -999.000  288.300    9.450    3.194   -8.748
   50.000 -999.000  288.300    9.450    3.215   -8.720
   55.000 -999.000  288.300    9.450    3.237   -8.692
   60.000 -999.000  288.300    9.450    3.258   -8.664
   65.000 -999.000  288.300    9.450    3.280   -8.636
   70.000 -999.000  288.300    9.450    3.301   -8.608
   75.000 -999.000  288.300    9.450    3.322   -8.580
   80.000 -999.000  288.300    9.450    3.344   -8.552
   85.000 -999.000  288.300    9.450    3.365   -8.524
   90.000 -999.000  288.300    9.450    3.387   -8.496
   95.000 -999.000  288.300    9.450    3.408   -8.468
  100.000 -999.000  288.300    9.450    3.430   -8.440
  105.000 -999.000  288.300    9.450    3.451   -8.412
  110.000 -999.000  288.300    9.450    3.473   -8.384
  115.000 -999.000  288.300    9.450    3.494   -8.356
  120.000 -999.000  288.300    9.450    3.516   -8.328
  125.000 -999.000  288.300    9.450    3.537   -8.300
  130.000 -999.000  288.300    9.450    3.559   -8.272
  135.000 -999.000  288.300    9.450    3.581   -8.244
  140.000 -999.000  288.300    9.450    3.602   -8.216
  145.000 -999.000  288.300    9.450    3.624   -8.188
  150.000 -999.000  288.300    9.450    3.645   -8.160
  155.000 -999.000  288.300    9.450    3.667   -8.132
  160.000 -999.000  288.300    9.450    3.688   -8.104
  165.000 -999.000  288.300    9.450    3.710   -8.076
  170.000 -999.000  288.300    9.450    3.731   -8.048
  175.000 -999.000  288.300    9.450    3.753   -8.020
  180.000 -999.000  288.300    9.450    3.774   -7.992
  185.000 -999.000  288.300    9.450    3.796   -7.964
  190.000 -999.000  288.300    9.450    3.817   -7.936
  195.000 -999.000  288.300    9.450    3.839   -7.908
  200.000 -999.000  288.300    9.450    3.860   -7.880
  205.000 -999.000  288.300    9.450    3.882   -7.852
  210.000 -999.000  288.300    9.450    3.903   -7.824
  215.000 -999.000  288.300    9.450    3.924   -7.796
  220.000 -999.000  288.300    9.450    3.946   -7.768
  225.000 -999.000  288.300    9.450    3.967   -7.740
  230.000 -999.000  288.300    9.450    3.989   -7.712
  235.000 -999.000  288.300    9.450    4.010   -7.684
  240.000 -999.000  288.300    9.450    4.032   -7.656
  245.000 -999.000  288.300    9.450    4.054   -7.628
  250.000 -999.000  288.300    9.450    4.075   -7.600
  255.000 -999.000  288.300    9.450    4.096   -7.572
  260.000 -999.000  288.300    9.450    4.118   -7.544
  265.000 -999.000  288.300    9.450    4.140   -7.516
  270.000 -999.000  288.300    9.450    4.161   -7.488
  275.000 -999.000  288.300    9.450    4.182   -7.460
  280.000 -999.000  288.300    9.450    4.204   -7.432
  285.000 -999.000  288.300    9.450    4.226   -7.404
  290.000 -999.000  288.300    9.450    4.247   -7.376
  295.000 -999.000  288.300    9.450    4.268   -7.348
  300.000 -999.000  288.300    9.450    4.290   -7.320
  305.000 -999.000  288.300    9.450    4.312   -7.292
  310.000 -999.000  288.300    9.450    4.333   -7.264
  315.000 -999.000  288.300    9.450    4.355   -7.236
  320.000 -999.000  288.300    9.450    4.376   -7.208
  325.000 -999.000  288.300    9.450    4.398   -7.180
  330.000 -999.000  288.300    9.450    4.419   -7.152
  335.000 -999.000  288.300    9.450    4.441   -7.124
  340.000 -999.000  288.300    9.450    4.462   -7.096
  345.000 -999.000  288.300    9.450    4.484   -7.068
  350.000 -999.000  288.300    9.450    4.505   -7.040
  355.000 -999.000  288.300    9.450    4.527   -7.012
  360.000 -999.000  288.300    9.450    4.548   -6.984
  365.000 -999.000  288.300    9.450    4.569   -6.956
  370.000 -999.000  288.300    9.450    4.591   -6.928
  375.000 -999.000  288.300    9.450    4.613   -6.900
  380.000 -999.000  288.300    9.450    4.634   -6.872
  385.000 -999.000  288.300    9.450    4.655   -6.844
  390.000 -999.000  288.300    9.450    4.677   -6.816
  395.000 -999.000  288.300    9.450    4.699   -6.788
  400.000 -999.000  288.300    9.450    4.720   -6.760
  405.000 -999.000  288.300    9.450    4.741   -6.732
  410.000 -999.000  288.300    9.450    4.763   -6.704
  415.000 -999.000  288.300    9.450    4.785   -6.676
  420.000 -999.000  288.300    9.450    4.806   -6.648
  425.000 -999.000  288.300    9.450    4.827   -6.620
  430.000 -999.000  288.300    9.450    4.849   -6.592
  435.000 -999.000  288.300    9.450    4.871   -6.564
  440.000 -999.000  288.300    9.450    4.892   -6.536
  445.000 -999.000  288.300    9.450    4.914   -6.508
  450.000 -999.000  288.300    9.450    4.935   -6.480
  455.000 -999.000  288.300    9.450    4.957   -6.452
  460.000 -999.000  288.300    9.450    4.978   -6.424
  465.000 -999.000  288.300    9.450    5.000   -6.396
  470.000 -999.000  288.300    9.450    5.021   -6.368
  475.000 -999.000  288.300    9.450    5.043   -6.340
  480.000 -999.000  288.300    9.450    5.064   -6.312
  485.000 -999.000  288.300    9.450    5.086   -6.284
  490.000 -999.000  288.300    9.450    5.107   -6.256
  495.000 -999.000  288.300    9.450    5.128   -6.228
  500.000 -999.000  288.300    9.450    5.150   -6.200
  505.000 -999.000  288.300    9.450    5.172   -6.172
  510.000 -999.000  288.300    9.450    5.193   -6.144
  515.000 -999.000  288.300    9.450    5.214   -6.116
  520.000 -999.000  288.300    9.450    5.236   -6.088
  525.000 -999.000  288.300    9.450    5.258   -6.060
  530.000 -999.000  288.300    9.450    5.279   -6.032
  535.000 -999.000  288.300    9.450    5.300   -6.004
  540.000 -999.000  288.300    9.450    5.322   -5.976
  545.000 -999.000  288.300    9.450    5.344   -5.948
  550.000 -999.000  288.300    9.450    5.365   -5.920
  555.000 -999.000  288.300    9.450    5.386   -5.892
  560.000 -999.000  288.300    9.450    5.408   -5.864
  565.000 -999.000  288.300    9.450    5.430   -5.836
  570.000 -999.000  288.300    9.450    5.451   -5.808
  575.000 -999.000  288.300    9.450    5.473   -5.780
  580.000 -999.000  288.300    9.450    5.494   -5.752
  585.000 -999.000  288.300    9.450    5.516   -5.724
  590.000 -999.000  288.300    9.450    5.537   -5.696
  595.000 -999.000  288.300    9.450    5.559   -5.668
  600.000 -999.000  288.300    9.450    5.580   -5.640
  605.000 -999.000  288.300    9.450    5.602   -5.612
  610.000 -999.000  288.300    9.450    5.623   -5.584
  615.000 -999.000  288.300    9.450    5.645   -5.556
  620.000 -999.000  288.300    9.450    5.666   -5.528
  625.000 -999.000  288.300    9.450    5.688   -5.500
  630.000 -999.000  288.300    9.450    5.709   -5.472
  635.000 -999.000  288.300    9.450    5.731   -5.444
  640.000 -999.000  288.300    9.450    5.752   -5.416
  645.000 -999.000  288.300    9.450    5.773   -5.388
  650.000 -999.000  288.300    9.450    5.795   -5.360
  655.000 -999.000  288.300    9.450    5.817   -5.332
  660.000 -999.000  288.300    9.450    5.838   -5.304
  665.000 -999.000  288.300    9.450    5.859   -5.276
  670.000 -999.000  288.300    9.450    5.881   -5.248
  675.000 -999.000  288.300    9.450    5.903   -5.220
  680.000 -999.000  288.300    9.450    5.924   -5.192
  685.000 -999.000  288.300    9.450    5.945   -5.164
  690.000 -999.000  288.300    9.450    5.967   -5.136
  695.000 -999.000  288.300    9.450    5.989   -5.108
  700.000 -999.000  288.300    9.450    6.010   -5.080
  705.000 -999.000  288.300    9.450    6.032   -5.052
  710.000 -999.000  288.300    9.450    6.053   -5.024
  715.000 -999.000  288.300    9.450    6.075   -4.996
  720.000 -999.000  288.300    9.450    6.096   -4.968
  725.000 -999.000  288.300    9.450    6.118   -4.940
  730.000 -999.000  288.300    9.450    6.139   -4.912
  735.000 -999.000  288.300    9.450    6.161   -4.884
  740.000 -999.000  288.300    9.450    6.182   -4.856
  745.000 -999.000  288.300    9.450    6.204   -4.828
  750.000 -999.000  288.300    9.450    6.225   -4.800
  755.000 -999.000  288.300    9.450    6.247   -4.772
  760.000 -999.000  288.300    9.450    6.268   -4.744
  765.000 -999.000  288.300    9.450    6.290   -4.716
  770.000 -999.000  288.300    9.450    6.311   -4.688
  775.000 -999.000  288.300    9.450    6.332   -4.660
  780.000 -999.000  288.300    9.450    6.354   -4.632
  785.000 -999.000  288.300    9.450    6.376   -4.604
  790.000 -999.000  288.300    9.450    6.397   -4.576
  795.000 -999.000  288.300    9.450    6.418   -4.548
  800.000 -999.000  296.710    4.970    6.440   -4.520
  805.000 -999.000  297.154    4.941    6.462   -4.492
  810.000 -999.000  297.466    4.911    6.483   -4.464
  815.000 -999.000  297.714    4.882    6.505   -4.436
  820.000 -999.000  297.924    4.854    6.526   -4.408
  825.000 -999.000  298.107    4.825    6.548   -4.380
  830.000 -999.000  298.271    4.797    6.569   -4.352
  835.000 -999.000  298.420    4.769    6.591   -4.324
  840.000 -999.000  298.557    4.742    6.612   -4.296
  845.000 -999.000  298.684    4.715    6.634   -4.268
  850.000 -999.000  298.803    4.688    6.655   -4.240
  855.000 -999.000  298.915    4.661    6.677   -4.212
  860.000 -999.000  299.021    4.634    6.698   -4.184
  865.000 -999.000  299.121    4.608    6.720   -4.156
  870.000 -999.000  299.217    4.582    6.741   -4.128
  875.000 -999.000  299.309    4.556    6.763   -4.100
  880.000 -999.000  299.397    4.531    6.784   -4.072
  885.000 -999.000  299.481    4.506    6.806   -4.044
  890.000 -999.000  299.563    4.481    6.827   -4.016
  895.000 -999.000  299.642    4.456    6.849   -3.988
  900.000 -999.000  299.718    4.432    6.870   -3.960
  905.000 -999.000  299.791    4.408    6.891   -3.932
  910.000 -999.000  299.863    4.384    6.913   -3.904
  915.000 -999.000  299.932    4.360    6.935   -3.876
  920.000 -999.000  300.000    4.336    6.956   -3.848
  925.000 -999.000  300.066    4.313    6.977   -3.820
  930.000 -999.000  300.130    4.290    6.999   -3.792
  935.000 -999.000  300.192    4.267    7.021   -3.764
  940.000 -999.000  300.254    4.245    7.042   -3.736
  945.000 -999.000  300.313    4.222    7.064   -3.708
  950.000 -999.000  300.372    4.200    7.085   -3.680
  955.000 -999.000  300.429    4.178    7.107   -3.652
  960.000 -999.000  300.485    4.157    7.128   -3.624
  965.000 -999.000  300.540    4.135    7.150   -3.596
  970.000 -999.000  300.593    4.114    7.171   -3.568
  975.000 -999.000  300.646    4.093    7.193   -3.540
  980.000 -999.000  300.698    4.072    7.214   -3.512
  985.000 -999.000  300.749    4.052    7.236   -3.484
  990.000 -999.000  300.799    4.031    7.257   -3.456
  995.000 -999.000  300.848    4.011    7.279   -3.428
 1000.000 -999.000  300.896    3.991    7.300   -3.400
 1005.000 -999.000  300.944    3.971    7.322   -3.372
 1010.000 -999.000  300.991    3.952    7.343   -3.344
 1015.000 -999.000  301.037    3.932    7.365   -3.316
 1020.000 -999.000  301.082    3.913    7.386   -3.288
 1025.000 -999.000  301.127    3.894    7.408   -3.260
 1030.000 -999.000  301.171    3.875    7.429   -3.232
 1035.000 -999.000  301.214    3.856    7.451   -3.204
 1040.000 -999.000  301.257    3.838    7.472   -3.176
 1045.000 -999.000  301.300    3.820    7.494   -3.148
 1050.000 -999.000  301.341    3.801    7.515   -3.120
 1055.000 -999.000  301.382    3.784    7.536   -3.092
 1060.000 -999.000  301.423    3.766    7.558   -3.064
 1065.000 -999.000  301.463    3.748    7.580   -3.036
 1070.000 -999.000  301.503    3.731    7.601   -3.008
 1075.000 -999.000  301.542    3.714    7.623   -2.980
 1080.000 -999.000  301.581    3.697    7.644   -2.952
 1085.000 -999.000  301.619    3.680    7.666   -2.924
 1090.000 -999.000  301.657    3.663    7.687   -2.896
 1095.000 -999.000  301.694    3.646    7.709   -2.868
 1100.000 -999.000  301.731    3.630    7.730   -2.840
 1105.000 -999.000  301.768    3.614    7.752   -2.812
 1110.000 -999.000  301.804    3.598    7.773   -2.784
 1115.000 -999.000  301.840    3.582    7.795   -2.756
 1120.000 -999.000  301.875    3.566    7.816   -2.728
 1125.000 -999.000  301.910    3.551    7.838   -2.700
 1130.000 -999.000  301.945    3.535    7.859   -2.672
 1135.000 -999.000  301.980    3.520    7.881   -2.644
 1140.000 -999.000  302.014    3.505    7.902   -2.616
 1145.000 -999.000  302.047    3.490    7.924   -2.588
 1150.000 -999.000  302.081    3.475    7.945   -2.560
 1155.000 -999.000  302.114    3.460    7.967   -2.532
 1160.000 -999.000  302.147    3.446    7.988   -2.504
 1165.000 -999.000  302.179    3.431    8.010   -2.476
 1170.000 -999.000  302.211    3.417    8.031   -2.448
 1175.000 -999.000  302.243    3.403    8.052   -2.420
 1180.000 -999.000  302.275    3.389    8.074   -2.392
 1185.000 -999.000  302.306    3.375    8.095   -2.364
 1190.000 -999.000  302.337    3.362    8.117   -2.336
 1195.000 -999.000  302.368    3.348    8.139   -2.308
 1200.000 -999.000  302.399    3.335    8.160   -2.280
 1205.000 -999.000  302.429    3.321    8.182   -2.252
 1210.000 -999.000  302.459    3.308    8.203   -2.224
 1215.000 -999.000  302.489    3.295    8.225   -2.196
 1220.000 -999.000  302.518    3.282    8.246   -2.168
 1225.000 -999.000  302.548    3.269    8.267   -2.140
 1230.000 -999.000  302.577    3.257    8.289   -2.112
 1235.000 -999.000  302.606    3.244    8.311   -2.084
 1240.000 -999.000  302.635    3.232    8.332   -2.056
 1245.000 -999.000  302.663    3.220    8.354   -2.028
 1250.000 -999.000  302.691    3.208    8.375   -2.000
 1255.000 -999.000  302.719    3.196    8.397   -1.972
 1260.000 -999.000  302.747    3.184    8.418   -1.944
 1265.000 -999.000  302.775    3.172    8.439   -1.916
 1270.000 -999.000  302.802    3.160    8.461   -1.888
 1275.000 -999.000  302.830    3.149    8.483   -1.860
 1280.000 -999.000  302.857    3.137    8.504   -1.832
 1285.000 -999.000  302.884    3.126    8.526   -1.804
 1290.000 -999.000  302.910    3.115    8.547   -1.776
 1295.000 -999.000  302.937    3.104    8.569   -1.748
 1300.000 -999.000  302.963    3.093    8.590   -1.720
 1305.000 -999.000  302.990    3.082    8.611   -1.692
 1310.000 -999.000  303.016    3.071    8.633   -1.664
 1315.000 -999.000  303.041    3.060    8.655   -1.636
 1320.000 -999.000  303.067    3.050    8.676   -1.608
 1325.000 -999.000  303.093    3.039    8.698   -1.580
 1330.000 -999.000  303.118    3.029    8.719   -1.552
 1335.000 -999.000  303.143    3.019    8.741   -1.524
 1340.000 -999.000  303.168    3.009    8.762   -1.496
 1345.000 -999.000  303.193    2.999    8.784   -1.468
 1350.000 -999.000  303.218    2.989    8.805   -1.440
 1355.000 -999.000  303.243    2.979    8.826   -1.412
 1360.000 -999.000  303.267    2.969    8.848   -1.384
 1365.000 -999.000  303.291    2.959    8.870   -1.356
 1370.000 -999.000  303.315    2.950    8.891   -1.328
 1375.000 -999.000  303.340    2.940    8.913   -1.300
 1380.000 -999.000  303.363    2.931    8.934   -1.272
 1385.000 -999.000  303.387    2.922    8.956   -1.244
 1390.000 -999.000  303.411    2.913    8.977   -1.216
 1395.000 -999.000  303.434    2.904    8.998   -1.188
 1400.000 -999.000  303.458    2.895    9.020   -1.160
 1405.000 -999.000  303.481    2.886    9.042   -1.132
 1410.000 -999.000  303.504    2.877    9.063   -1.104
 1415.000 -999.000  303.527    2.868    9.085   -1.076
 1420.000 -999.000  303.550    2.860    9.106   -1.048
 1425.000 -999.000  303.573    2.851    9.128   -1.020
 1430.000 -999.000  303.595    2.842    9.149   -0.992
 1435.000 -999.000  303.618    2.834    9.170   -0.964
 1440.000 -999.000  303.640    2.826    9.192   -0.936
 1445.000 -999.000  303.662    2.818    9.214   -0.908
 1450.000 -999.000  303.685    2.809    9.235   -0.880
 1455.000 -999.000  303.707    2.801    9.257   -0.852
 1460.000 -999.000  303.728    2.793    9.278   -0.824
 1465.000 -999.000  303.750    2.786    9.300   -0.796
 1470.000 -999.000  303.772    2.778    9.321   -0.768
 1475.000 -999.000  303.794    2.770    9.343   -0.740
 1480.000 -999.000  303.815    2.762    9.364   -0.712
 1485.000 -999.000  303.837    2.755    9.385   -0.684
 1490.000 -999.000  303.858    2.747    9.407   -0.656
 1495.000 -999.000  303.879    2.740    9.429   -0.628
 1500.000 -999.000  303.900    2.732    9.450   -0.600
 1505.000 -999.000  303.921    2.725    9.472   -0.572
 1510.000 -999.000  303.942    2.718    9.493   -0.544
 1515.000 -999.000  303.963    2.711    9.515   -0.516
 1520.000 -999.000  303.983    2.704    9.536   -0.488
 1525.000 -999.000  304.004    2.697    9.557   -0.460
 1530.000 -999.000  304.025    2.690    9.579   -0.432
 1535.000 -999.000  304.045    2.683    9.601   -0.404
 1540.000 -999.000  304.065    2.676    9.622   -0.376
 1545.000 -999.000  304.086    2.669    9.644   -0.348
 1550.000 -999.000  304.106    2.663    9.665   -0.320
 1555.000 -999.000  304.126    2.656    9.687   -0.292
 1560.000 -999.000  304.146    2.650    9.708   -0.264
 1565.000 -999.000  304.166    2.643    9.730   -0.236
 1570.000 -999.000  304.185    2.637    9.751   -0.208
 1575.000 -999.000  304.205    2.630    9.773   -0.180
 1580.000 -999.000  304.225    2.624    9.794   -0.152
 1585.000 -999.000  304.244    2.618    9.816   -0.124
 1590.000 -999.000  304.264    2.612    9.837   -0.096
 1595.000 -999.000  304.283    2.606    9.859   -0.068
 1000.,  320, 1017.80  day,levels,pres0
    0.000 -999.000  288.300    9.450    3.000   -9.000
    5.000 -999.000  288.300    9.450    3.022   -8.972
   10.000 -999.000  288.300    9.450    3.043   -8.944
   15.000 -999.000  288.300    9.450    3.065   -8.916
   20.000 -999.000  288.300    9.450    3.086   -8.888
   25.000 -999.000  288.300    9.450    3.108   -8.860
   30.000 -999.000  288.300    9.450    3.129   -8.832
   35.000 -999.000  288.300    9.450    3.151   -8.804
   40.000 -999.000  288.300    9.450    3.172   -8.776
   45.000 -999.000  288.300    9.450    3.194   -8.748
   50.000 -999.000  288.300    9.450    3.215   -8.720
   55.000 -999.000  288.300    9.450    3.237   -8.692
   60.000 -999.000  288.300    9.450    3.258   -8.664
   65.000 -999.000  288.300    9.450    3.280   -8.636
   70.000 -999.000  288.300    9.450    3.301   -8.608
   75.000 -999.000  288.300    9.450    3.322   -8.580
   80.000 -999.000  288.300    9.450    3.344   -8.552
   85.000 -999.000  288.300    9.450    3.365   -8.524
   90.000 -999.000  288.300    9.450    3.387   -8.496
   95.000 -999.000  288.300    9.450    3.408   -8.468
  100.000 -999.000  288.300    9.450    3.430   -8.440
  105.000 -999.000  288.300    9.450    3.451   -8.412
  110.000 -999.000  288.300    9.450    3.473   -8.384
  115.000 -999.000  288.300    9.450    3.494   -8.356
  120.000 -999.000  288.300    9.450    3.516   -8.328
  125.000 -999.000  288.300    9.450    3.537   -8.300
  130.000 -999.000  288.300    9.450    3.559   -8.272
  135.000 -999.000  288.300    9.450    3.581   -8.244
  140.000 -999.000  288.300    9.450    3.602   -8.216
  145.000 -999.000  288.300    9.450    3.624   -8.188
  150.000 -999.000  288.300    9.450    3.645   -8.160
  155.000 -999.000  288.300    9.450    3.667   -8.132
  160.000 -999.000  288.300    9.450    3.688   -8.104
  165.000 -999.000  288.300    9.450    3.710   -8.076
  170.000 -999.000  288.300    9.450    3.731   -8.048
  175.000 -999.000  288.300    9.450    3.753   -8.020
  180.000 -999.000  288.300    9.450    3.774   -7.992
  185.000 -999.000  288.300    9.450    3.796   -7.964
  190.000 -999.000  288.300    9.450    3.817   -7.936
  195.000 -999.000  288.300    9.450    3.839   -7.908
  200.000 -999.000  288.300    9.450    3.860   -7.880
  205.000 -999.000  288.300    9.450    3.882   -7.852
  210.000 -999.000  288.300    9.450    3.903   -7.824
  215.000 -999.000  288.300    9.450    3.924   -7.796
  220.000 -999.000  288.300    9.450    3.946   -7.768
  225.000 -999.000  288.300    9.450    3.967   -7.740
  230.000 -999.000  288.300    9.450    3.989   -7.712
  235.000 -999.000  288.300    9.450    4.010   -7.684
  240.000 -999.000  288.300    9.450    4.032   -7.656
  245.000 -999.000  288.300    9.450    4.054   -7.628
  250.000 -999.000  288.300    9.450    4.075   -7.600
  255.000 -999.000  288.300    9.450    4.096   -7.572
  260.000 -999.000  288.300    9.450    4.118   -7.544
  265.000 -999.000  288.300    9.450    4.140   -7.516
  270.000 -999.000  288.300    9.450    4.161   -7.488
  275.000 -999.000  288.300    9.450    4.182   -7.460
  280.000 -999.000  288.300    9.450    4.204   -7.432
  285.000 -999.000  288.300    9.450    4.226   -7.404
  290.000 -999.000  288.300    9.450    4.247   -7.376
  295.000 -999.000  288.300    9.450    4.268   -7.348
  300.000 -999.000  288.300    9.450    4.290   -7.320
  305.000 -999.000  288.300    9.450    4.312   -7.292
  310.000 -999.000  288.300    9.450    4.333   -7.264
  315.000 -999.000  288.300    9.450    4.355   -7.236
  320.000 -999.000  288.300    9.450    4.376   -7.208
  325.000 -999.000  288.300    9.450    4.398   -7.180
  330.000 -999.000  288.300    9.450    4.419   -7.152
  335.000 -999.000  288.300    9.450    4.441   -7.124
  340.000 -999.000  288.300    9.450    4.462   -7.096
  345.000 -999.000  288.300    9.450    4.484   -7.068
  350.000 -999.000  288.300    9.450    4.505   -7.040
  355.000 -999.000  288.300    9.450    4.527   -7.012
  360.000 -999.000  288.300    9.450    4.548   -6.984
  365.000 -999.000  288.300    9.450    4.569   -6.956
  370.000 -999.000  288.300    9.450    4.591   -6.928
  375.000 -999.000  288.300    9.450    4.613   -6.900
  380.000 -999.000  288.300    9.450    4.634   -6.872
  385.000 -999.000  288.300    9.450    4.655   -6.844
  390.000 -999.000  288.300    9.450    4.677   -6.816
  395.000 -999.000  288.300    9.450    4.699   -6.788
  400.000 -999.000  288.300    9.450    4.720   -6.760
  405.000 -999.000  288.300    9.450    4.741   -6.732
  410.000 -999.000  288.300    9.450    4.763   -6.704
  415.000 -999.000  288.300    9.450    4.785   -6.676
  420.000 -999.000  288.300    9.450    4.806   -6.648
  425.000 -999.000  288.300    9.450    4.827   -6.620
  430.000 -999.000  288.300    9.450    4.849   -6.592
  435.000 -999.000  288.300    9.450    4.871   -6.564
  440.000 -999.000  288.300    9.450    4.892   -6.536
  445.000 -999.000  288.300    9.450    4.914   -6.508
  450.000 -999.000  288.300    9.450    4.935   -6.480
  455.000 -999.000  288.300    9.450    4.957   -6.452
  460.000 -999.000  288.300    9.450    4.978   -6.424
  465.000 -999.000  288.300    9.450    5.000   -6.396
  470.000 -999.000  288.300    9.450    5.021   -6.368
  475.000 -999.000  288.300    9.450    5.043   -6.340
  480.000 -999.000  288.300    9.450    5.064   -6.312
  485.000 -999.000  288.300    9.450    5.086   -6.284
  490.000 -999.000  288.300    9.450    5.107   -6.256
  495.000 -999.000  288.300    9.450    5.128   -6.228
  500.000 -999.000  288.300    9.450    5.150   -6.200
  505.000 -999.000  288.300    9.450    5.172   -6.172
  510.000 -999.000  288.300    9.450    5.193   -6.144
  515.000 -999.000  288.300    9.450    5.214   -6.116
  520.000 -999.000  288.300    9.450    5.236   -6.088
  525.000 -999.000  288.300    9.450    5.258   -6.060
  530.000 -999.000  288.300    9.450    5.279   -6.032
  535.000 -999.000  288.300    9.450    5.300   -6.004
  540.000 -999.000  288.300    9.450    5.322   -5.976
  545.000 -999.000  288.300    9.450    5.344   -5.948
  550.000 -999.000  288.300    9.450    5.365   -5.920
  555.000 -999.000  288.300    9.450    5.386   -5.892
  560.000 -999.000  288.300    9.450    5.408   -5.864
  565.000 -999.000  288.300    9.450    5.430   -5.836
  570.000 -999.000  288.300    9.450    5.451   -5.808
  575.000 -999.000  288.300    9.450    5.473   -5.780
  580.000 -999.000  288.300    9.450    5.494   -5.752
  585.000 -999.000  288.300    9.450    5.516   -5.724
  590.000 -999.000  288.300    9.450    5.537   -5.696
  595.000 -999.000  288.300    9.450    5.559   -5.668
  600.000 -999.000  288.300    9.450    5.580   -5.640
  605.000 -999.000  288.300    9.450    5.602   -5.612
  610.000 -999.000  288.300    9.450    5.623   -5.584
  615.000 -999.000  288.300    9.450    5.645   -5.556
  620.000 -999.000  288.300    9.450    5.666   -5.528
  625.000 -999.000  288.300    9.450    5.688   -5.500
  630.000 -999.000  288.300    9.450    5.709   -5.472
  635.000 -999.000  288.300    9.450    5.731   -5.444
  640.000 -999.000  288.300    9.450    5.752   -5.416
  645.000 -999.000  288.300    9.450    5.773   -5.388
  650.000 -999.000  288.300    9.450    5.795   -5.360
  655.000 -999.000  288.300    9.450    5.817   -5.332
  660.000 -999.000  288.300    9.450    5.838   -5.304
  665.000 -999.000  288.300    9.450    5.859   -5.276
  670.000 -999.000  288.300    9.450    5.881   -5.248
  675.000 -999.000  288.300    9.450    5.903   -5.220
  680.000 -999.000  288.300    9.450    5.924   -5.192
  685.000 -999.000  288.300    9.450    5.945   -5.164
  690.000 -999.000  288.300    9.450    5.967   -5.136
  695.000 -999.000  288.300    9.450    5.989   -5.108
  700.000 -999.000  288.300    9.450    6.010   -5.080
  705.000 -999.000  288.300    9.450    6.032   -5.052
  710.000 -999.000  288.300    9.450    6.053   -5.024
  715.000 -999.000  288.300    9.450    6.075   -4.996
  720.000 -999.000  288.300    9.450    6.096   -4.968
  725.000 -999.000  288.300    9.450    6.118   -4.940
  730.000 -999.000  288.300    9.450    6.139   -4.912
  735.000 -999.000  288.300    9.450    6.161   -4.884
  740.000 -999.000  288.300    9.450    6.182   -4.856
  745.000 -999.000  288.300    9.450    6.204   -4.828
  750.000 -999.000  288.300    9.450    6.225   -4.800
  755.000 -999.000  288.300    9.450    6.247   -4.772
  760.000 -999.000  288.300    9.450    6.268   -4.744
  765.000 -999.000  288.300    9.450    6.290   -4.716
  770.000 -999.000  288.300    9.450    6.311   -4.688
  775.000 -999.000  288.300    9.450    6.332   -4.660
  780.000 -999.000  288.300    9.450    6.354   -4.632
  785.000 -999.000  288.300    9.450    6.376   -4.604
  790.000 -999.000  288.300    9.450    6.397   -4.576
  795.000 -999.000  288.300    9.450    6.418   -4.548
  800.000 -999.000  296.710    4.970    6.440   -4.520
  805.000 -999.000  297.154    4.941    6.462   -4.492
  810.000 -999.000  297.466    4.911    6.483   -4.464
  815.000 -999.000  297.714    4.882    6.505   -4.436
  820.000 -999.000  297.924    4.854    6.526   -4.408
  825.000 -999.000  298.107    4.825    6.548   -4.380
  830.000 -999.000  298.271    4.797    6.569   -4.352
  835.000 -999.000  298.420    4.769    6.591   -4.324
  840.000 -999.000  298.557    4.742    6.612   -4.296
  845.000 -999.000  298.684    4.715    6.634   -4.268
  850.000 -999.000  298.803    4.688    6.655   -4.240
  855.000 -999.000  298.915    4.661    6.677   -4.212
  860.000 -999.000  299.021    4.634    6.698   -4.184
  865.000 -999.000  299.121    4.608    6.720   -4.156
  870.000 -999.000  299.217    4.582    6.741   -4.128
  875.000 -999.000  299.309    4.556    6.763   -4.100
  880.000 -999.000  299.397    4.531    6.784   -4.072
  885.000 -999.000  299.481    4.506    6.806   -4.044
  890.000 -999.000  299.563    4.481    6.827   -4.016
  895.000 -999.000  299.642    4.456    6.849   -3.988
  900.000 -999.000  299.718    4.432    6.870   -3.960
  905.000 -999.000  299.791    4.408    6.891   -3.932
  910.000 -999.000  299.863    4.384    6.913   -3.904
  915.000 -999.000  299.932    4.360    6.935   -3.876
  920.000 -999.000  300.000    4.336    6.956   -3.848
  925.000 -999.000  300.066    4.313    6.977   -3.820
  930.000 -999.000  300.130    4.290    6.999   -3.792
  935.000 -999.000  300.192    4.267    7.021   -3.764
  940.000 -999.000  300.254    4.245    7.042   -3.736
  945.000 -999.000  300.313    4.222    7.064   -3.708
  950.000 -999.000  300.372    4.200    7.085   -3.680
  955.000 -999.000  300.429    4.178    7.107   -3.652
  960.000 -999.000  300.485    4.157    7.128   -3.624
  965.000 -999.000  300.540    4.135    7.150   -3.596
  970.000 -999.000  300.593    4.114    7.171   -3.568
  975.000 -999.000  300.646    4.093    7.193   -3.540
  980.000 -999.000  300.698    4.072    7.214   -3.512
  985.000 -999.000  300.749    4.052    7.236   -3.484
  990.000 -999.000  300.799    4.031    7.257   -3.456
  995.000 -999.000  300.848    4.011    7.279   -3.428
 1000.000 -999.000  300.896    3.991    7.300   -3.400
 1005.000 -999.000  300.944    3.971    7.322   -3.372
 1010.000 -999.000  300.991    3.952    7.343   -3.344
 1015.000 -999.000  301.037    3.932    7.365   -3.316
 1020.000 -999.000  301.082    3.913    7.386   -3.288
 1025.000 -999.000  301.127    3.894    7.408   -3.260
 1030.000 -999.000  301.171    3.875    7.429   -3.232
 1035.000 -999.000  301.214    3.856    7.451   -3.204
 1040.000 -999.000  301.257    3.838    7.472   -3.176
 1045.000 -999.000  301.300    3.820    7.494   -3.148
 1050.000 -999.000  301.341    3.801    7.515   -3.120
 1055.000 -999.000  301.382    3.784    7.536   -3.092
 1060.000 -999.000  301.423    3.766    7.558   -3.064
 1065.000 -999.000  301.463    3.748    7.580   -3.036
 1070.000 -999.000  301.503    3.731    7.601   -3.008
 1075.000 -999.000  301.542    3.714    7.623   -2.980
 1080.000 -999.000  301.581    3.697    7.644   -2.952
 1085.000 -999.000  301.619    3.680    7.666   -2.924
 1090.000 -999.000  301.657    3.663    7.687   -2.896
 1095.000 -999.000  301.694    3.646    7.709   -2.868
 1100.000 -999.000  301.731    3.630    7.730   -2.840
 1105.000 -999.000  301.768    3.614    7.752   -2.812
 1110.000 -999.000  301.804    3.598    7.773   -2.784
 1115.000 -999.000  301.840    3.582    7.795   -2.756
 1120.000 -999.000  301.875    3.566    7.816   -2.728
 1125.000 -999.000  301.910    3.551    7.838   -2.700
 1130.000 -999.000  301.945    3.535    7.859   -2.672
 1135.000 -999.000  301.980    3.520    7.881   -2.644
 1140.000 -999.000  302.014    3.505    7.902   -2.616
 1145.000 -999.000  302.047    3.490    7.924   -2.588
 1150.000 -999.000  302.081    3.475    7.945   -2.560
 1155.000 -999.000  302.114    3.460    7.967   -2.532
 1160.000 -999.000  302.147    3.446    7.988   -2.504
 1165.000 -999.000  302.179    3.431    8.010   -2.476
 1170.000 -999.000  302.211    3.417    8.031   -2.448
 1175.000 -999.000  302.243    3.403    8.052   -2.420
 1180.000 -999.000  302.275    3.389    8.074   -2.392
 1185.000 -999.000  302.306    3.375    8.095   -2.364
 1190.000 -999.000  302.337    3.362    8.117   -2.336
 1195.000 -999.000  302.368    3.348    8.139   -2.308
 1200.000 -999.000  302.399    3.335    8.160   -2.280
 1205.000 -999.000  302.429    3.321    8.182   -2.252
 1210.000 -999.000  302.459    3.308    8.203   -2.224
 1215.000 -999.000  302.489    3.295    8.225   -2.196
 1220.000 -999.000  302.518    3.282    8.246   -2.168
 1225.000 -999.000  302.548    3.269    8.267   -2.140
 1230.000 -999.000  302.577    3.257    8.289   -2.112
 1235.000 -999.000  302.606    3.244    8.311   -2.084
 1240.000 -999.000  302.635    3.232    8.332   -2.056
 1245.000 -999.000  302.663    3.220    8.354   -2.028
 1250.000 -999.000  302.691    3.208    8.375   -2.000
 1255.000 -999.000  302.719    3.196    8.397   -1.972
 1260.000 -999.000  302.747    3.184    8.418   -1.944
 1265.000 -999.000  302.775    3.172    8.439   -1.916
 1270.000 -999.000  302.802    3.160    8.461   -1.888
 1275.000 -999.000  302.830    3.149    8.483   -1.860
 1280.000 -999.000  302.857    3.137    8.504   -1.832
 1285.000 -999.000  302.884    3.126    8.526   -1.804
 1290.000 -999.000  302.910    3.115    8.547   -1.776
 1295.000 -999.000  302.937    3.104    8.569   -1.748
 1300.000 -999.000  302.963    3.093    8.590   -1.720
 1305.000 -999.000  302.990    3.082    8.611   -1.692
 1310.000 -999.000  303.016    3.071    8.633   -1.664
 1315.000 -999.000  303.041    3.060    8.655   -1.636
 1320.000 -999.000  303.067    3.050    8.676   -1.608
 1325.000 -999.000  303.093    3.039    8.698   -1.580
 1330.000 -999.000  303.118    3.029    8.719   -1.552
 1335.000 -999.000  303.143    3.019    8.741   -1.524
 1340.000 -999.000  303.168    3.009    8.762   -1.496
 1345.000 -999.000  303.193    2.999    8.784   -1.468
 1350.000 -999.000  303.218    2.989    8.805   -1.440
 1355.000 -999.000  303.243    2.979    8.826   -1.412
 1360.000 -999.000  303.267    2.969    8.848   -1.384
 1365.000 -999.000  303.291    2.959    8.870   -1.356
 1370.000 -999.000  303.315    2.950    8.891   -1.328
 1375.000 -999.000  303.340    2.940    8.913   -1.300
 1380.000 -999.000  303.363    2.931    8.934   -1.272
 1385.000 -999.000  303.387    2.922    8.956   -1.244
 1390.000 -999.000  303.411    2.913    8.977   -1.216
 1395.000 -999.000  303.434    2.904    8.998   -1.188
 1400.000 -999.000  303.458    2.895    9.020   -1.160
 1405.000 -999.000  303.481    2.886    9.042   -1.132
 1410.000 -999.000  303.504    2.877    9.063   -1.104
 1415.000 -999.000  303.527    2.868    9.085   -1.076
 1420.000 -999.000  303.550    2.860    9.106   -1.048
 1425.000 -999.000  303.573    2.851    9.128   -1.020
 1430.000 -999.000  303.595    2.842    9.149   -0.992
 1435.000 -999.000  303.618    2.834    9.170   -0.964
 1440.000 -999.000  303.640    2.826    9.192   -0.936
 1445.000 -999.000  303.662    2.818    9.214   -0.908
 1450.000 -999.000  303.685    2.809    9.235   -0.880
 1455.000 -999.000  303.707    2.801    9.257   -0.852
 1460.000 -999.000  303.728    2.793    9.278   -0.824
 1465.000 -999.000  303.750    2.786    9.300   -0.796
 1470.000 -999.000  303.772    2.778    9.321   -0.768
 1475.000 -999.000  303.794    2.770    9.343   -0.740
 1480.000 -999.000  303.815    2.762    9.364   -0.712
 1485.000 -999.000  303.837    2.755    9.385   -0.684
 1490.000 -999.000  303.858    2.747    9.407   -0.656
 1495.000 -999.000  303.879    2.740    9.429   -0.628
 1500.000 -999.000  303.900    2.732    9.450   -0.600
 1505.000 -999.000  303.921    2.725    9.472   -0.572
 1510.000 -999.000  303.942    2.718    9.493   -0.544
 1515.000 -999.000  303.963    2.711    9.515   -0.516
 1520.000 -999.000  303.983    2.704    9.536   -0.488
 1525.000 -999.000  304.004    2.697    9.557   -0.460
 1530.000 -999.000  304.025    2.690    9.579   -0.432
 1535.000 -999.000  304.045    2.683    9.601   -0.404
 1540.000 -999.000  304.065    2.676    9.622   -0.376
 1545.000 -999.000  304.086    2.669    9.644   -0.348
 1550.000 -999.000  304.106    2.663    9.665   -0.320
 1555.000 -999.000  304.126    2.656    9.687   -0.292
 1560.000 -999.000  304.146    2.650    9.708   -0.264
 1565.000 -999.000  304.166    2.643    9.730   -0.236
 1570.000 -999.000  304.185    2.637    9.751   -0.208
 1575.000 -999.000  304.205    2.630    9.773   -0.180
 1580.000 -999.000  304.225    2.624    9.794   -0.152
 1585.000 -999.000  304.244    2.618    9.816   -0.124
 1590.000 -999.000  304.264    2.612    9.837   -0.096
 1595.000 -999.000  304.283    2.606    9.859   -0.068
