 z[m] p[mb] tp[K] q[g/kg] u[m/s] v[m/s]
 0.,  320, 1017.80  day,levels,pres0
    0.000 -999.000  288.300    9.450    6.500   -8.500
    5.000 -999.000  288.300    9.450    6.510   -8.475
   10.000 -999.000  288.300    9.450    6.520   -8.450
   15.000 -999.000  288.300    9.450    6.530   -8.425
   20.000 -999.000  288.300    9.450    6.540   -8.400
   25.000 -999.000  288.300    9.450    6.550   -8.375
   30.000 -999.000  288.300    9.450    6.560   -8.350
   35.000 -999.000  288.300    9.450    6.570   -8.325
   40.000 -999.000  288.300    9.450    6.580   -8.300
   45.000 -999.000  288.300    9.450    6.590   -8.275
   50.000 -999.000  288.300    9.450    6.600   -8.250
   55.000 -999.000  288.300    9.450    6.610   -8.225
   60.000 -999.000  288.300    9.450    6.620   -8.200
   65.000 -999.000  288.300    9.450    6.630   -8.175
   70.000 -999.000  288.300    9.450    6.640   -8.150
   75.000 -999.000  288.300    9.450    6.650   -8.125
   80.000 -999.000  288.300    9.450    6.660   -8.100
   85.000 -999.000  288.300    9.450    6.670   -8.075
   90.000 -999.000  288.300    9.450    6.680   -8.050
   95.000 -999.000  288.300    9.450    6.690   -8.025
  100.000 -999.000  288.300    9.450    6.700   -8.000
  105.000 -999.000  288.300    9.450    6.710   -7.975
  110.000 -999.000  288.300    9.450    6.720   -7.950
  115.000 -999.000  288.300    9.450    6.730   -7.925
  120.000 -999.000  288.300    9.450    6.740   -7.900
  125.000 -999.000  288.300    9.450    6.750   -7.875
  130.000 -999.000  288.300    9.450    6.760   -7.850
  135.000 -999.000  288.300    9.450    6.770   -7.825
  140.000 -999.000  288.300    9.450    6.780   -7.800
  145.000 -999.000  288.300    9.450    6.790   -7.775
  150.000 -999.000  288.300    9.450    6.800   -7.750
  155.000 -999.000  288.300    9.450    6.810   -7.725
  160.000 -999.000  288.300    9.450    6.820   -7.700
  165.000 -999.000  288.300    9.450    6.830   -7.675
  170.000 -999.000  288.300    9.450    6.840   -7.650
  175.000 -999.000  288.300    9.450    6.850   -7.625
  180.000 -999.000  288.300    9.450    6.860   -7.600
  185.000 -999.000  288.300    9.450    6.870   -7.575
  190.000 -999.000  288.300    9.450    6.880   -7.550
  195.000 -999.000  288.300    9.450    6.890   -7.525
  200.000 -999.000  288.300    9.450    6.900   -7.500
  205.000 -999.000  288.300    9.450    6.910   -7.475
  210.000 -999.000  288.300    9.450    6.920   -7.450
  215.000 -999.000  288.300    9.450    6.930   -7.425
  220.000 -999.000  288.300    9.450    6.940   -7.400
  225.000 -999.000  288.300    9.450    6.950   -7.375
  230.000 -999.000  288.300    9.450    6.960   -7.350
  235.000 -999.000  288.300    9.450    6.970   -7.325
  240.000 -999.000  288.300    9.450    6.980   -7.300
  245.000 -999.000  288.300    9.450    6.990   -7.275
  250.000 -999.000  288.300    9.450    7.000   -7.250
  255.000 -999.000  288.300    9.450    7.010   -7.225
  260.000 -999.000  288.300    9.450    7.020   -7.200
  265.000 -999.000  288.300    9.450    7.030   -7.175
  270.000 -999.000  288.300    9.450    7.040   -7.150
  275.000 -999.000  288.300    9.450    7.050   -7.125
  280.000 -999.000  288.300    9.450    7.060   -7.100
  285.000 -999.000  288.300    9.450    7.070   -7.075
  290.000 -999.000  288.300    9.450    7.080   -7.050
  295.000 -999.000  288.300    9.450    7.090   -7.025
  300.000 -999.000  288.300    9.450    7.100   -7.000
  305.000 -999.000  288.300    9.450    7.110   -6.975
  310.000 -999.000  288.300    9.450    7.120   -6.950
  315.000 -999.000  288.300    9.450    7.130   -6.925
  320.000 -999.000  288.300    9.450    7.140   -6.900
  325.000 -999.000  288.300    9.450    7.150   -6.875
  330.000 -999.000  288.300    9.450    7.160   -6.850
  335.000 -999.000  288.300    9.450    7.170   -6.825
  340.000 -999.000  288.300    9.450    7.180   -6.800
  345.000 -999.000  288.300    9.450    7.190   -6.775
  350.000 -999.000  288.300    9.450    7.200   -6.750
  355.000 -999.000  288.300    9.450    7.210   -6.725
  360.000 -999.000  288.300    9.450    7.220   -6.700
  365.000 -999.000  288.300    9.450    7.230   -6.675
  370.000 -999.000  288.300    9.450    7.240   -6.650
  375.000 -999.000  288.300    9.450    7.250   -6.625
  380.000 -999.000  288.300    9.450    7.260   -6.600
  385.000 -999.000  288.300    9.450    7.270   -6.575
  390.000 -999.000  288.300    9.450    7.280   -6.550
  395.000 -999.000  288.300    9.450    7.290   -6.525
  400.000 -999.000  288.300    9.450    7.300   -6.500
  405.000 -999.000  288.300    9.450    7.310   -6.475
  410.000 -999.000  288.300    9.450    7.320   -6.450
  415.000 -999.000  288.300    9.450    7.330   -6.425
  420.000 -999.000  288.300    9.450    7.340   -6.400
  425.000 -999.000  288.300    9.450    7.350   -6.375
  430.000 -999.000  288.300    9.450    7.360   -6.350
  435.000 -999.000  288.300    9.450    7.370   -6.325
  440.000 -999.000  288.300    9.450    7.380   -6.300
  445.000 -999.000  288.300    9.450    7.390   -6.275
  450.000 -999.000  288.300    9.450    7.400   -6.250
  455.000 -999.000  288.300    9.450    7.410   -6.225
  460.000 -999.000  288.300    9.450    7.420   -6.200
  465.000 -999.000  288.300    9.450    7.430   -6.175
  470.000 -999.000  288.300    9.450    7.440   -6.150
  475.000 -999.000  288.300    9.450    7.450   -6.125
  480.000 -999.000  288.300    9.450    7.460   -6.100
  485.000 -999.000  288.300    9.450    7.470   -6.075
  490.000 -999.000  288.300    9.450    7.480   -6.050
  495.000 -999.000  288.300    9.450    7.490   -6.025
  500.000 -999.000  288.300    9.450    7.500   -6.000
  505.000 -999.000  288.300    9.450    7.510   -5.975
  510.000 -999.000  288.300    9.450    7.520   -5.950
  515.000 -999.000  288.300    9.450    7.530   -5.925
  520.000 -999.000  288.300    9.450    7.540   -5.900
  525.000 -999.000  288.300    9.450    7.550   -5.875
  530.000 -999.000  288.300    9.450    7.560   -5.850
  535.000 -999.000  288.300    9.450    7.570   -5.825
  540.000 -999.000  288.300    9.450    7.580   -5.800
  545.000 -999.000  288.300    9.450    7.590   -5.775
  550.000 -999.000  288.300    9.450    7.600   -5.750
  555.000 -999.000  288.300    9.450    7.610   -5.725
  560.000 -999.000  288.300    9.450    7.620   -5.700
  565.000 -999.000  288.300    9.450    7.630   -5.675
  570.000 -999.000  288.300    9.450    7.640   -5.650
  575.000 -999.000  288.300    9.450    7.650   -5.625
  580.000 -999.000  288.300    9.450    7.660   -5.600
  585.000 -999.000  288.300    9.450    7.670   -5.575
  590.000 -999.000  288.300    9.450    7.680   -5.550
  595.000 -999.000  288.300    9.450    7.690   -5.525
  600.000 -999.000  288.300    9.450    7.700   -5.500
  605.000 -999.000  288.300    9.450    7.710   -5.475
  610.000 -999.000  288.300    9.450    7.720   -5.450
  615.000 -999.000  288.300    9.450    7.730   -5.425
  620.000 -999.000  288.300    9.450    7.740   -5.400
  625.000 -999.000  288.300    9.450    7.750   -5.375
  630.000 -999.000  288.300    9.450    7.760   -5.350
  635.000 -999.000  288.300    9.450    7.770   -5.325
  640.000 -999.000  288.300    9.450    7.780   -5.300
  645.000 -999.000  288.300    9.450    7.790   -5.275
  650.000 -999.000  288.300    9.450    7.800   -5.250
  655.000 -999.000  288.300    9.450    7.810   -5.225
  660.000 -999.000  288.300    9.450    7.820   -5.200
  665.000 -999.000  288.300    9.450    7.830   -5.175
  670.000 -999.000  288.300    9.450    7.840   -5.150
  675.000 -999.000  288.300    9.450    7.850   -5.125
  680.000 -999.000  288.300    9.450    7.860   -5.100
  685.000 -999.000  288.300    9.450    7.870   -5.075
  690.000 -999.000  288.300    9.450    7.880   -5.050
  695.000 -999.000  288.300    9.450    7.890   -5.025
  700.000 -999.000  288.300    9.450    7.900   -5.000
  705.000 -999.000  288.300    9.450    7.910   -4.975
  710.000 -999.000  288.300    9.450    7.920   -4.950
  715.000 -999.000  288.300    9.450    7.930   -4.925
  720.000 -999.000  288.300    9.450    7.940   -4.900
  725.000 -999.000  288.300    9.450    7.950   -4.875
  730.000 -999.000  288.300    9.450    7.960   -4.850
  735.000 -999.000  288.300    9.450    7.970   -4.825
  740.000 -999.000  288.300    9.450    7.980   -4.800
  745.000 -999.000  288.300    9.450    7.990   -4.775
  750.000 -999.000  288.300    9.450    8.000   -4.750
  755.000 -999.000  288.300    9.450    8.010   -4.725
  760.000 -999.000  288.300    9.450    8.020   -4.700
  765.000 -999.000  288.300    9.450    8.030   -4.675
  770.000 -999.000  288.300    9.450    8.040   -4.650
  775.000 -999.000  288.300    9.450    8.050   -4.625
  780.000 -999.000  288.300    9.450    8.060   -4.600
  785.000 -999.000  288.300    9.450    8.070   -4.575
  790.000 -999.000  288.300    9.450    8.080   -4.550
  795.000 -999.000  288.300    9.450    8.090   -4.525
  800.000 -999.000  296.710    4.970    8.100   -4.500
  805.000 -999.000  297.154    4.941    8.110   -4.475
  810.000 -999.000  297.466    4.911    8.120   -4.450
  815.000 -999.000  297.714    4.882    8.130   -4.425
  820.000 -999.000  297.924    4.854    8.140   -4.400
  825.000 -999.000  298.107    4.825    8.150   -4.375
  830.000 -999.000  298.271    4.797    8.160   -4.350
  835.000 -999.000  298.420    4.769    8.170   -4.325
  840.000 -999.000  298.557    4.742    8.180   -4.300
  845.000 -999.000  298.684    4.715    8.190   -4.275
  850.000 -999.000  298.803    4.688    8.200   -4.250
  855.000 -999.000  298.915    4.661    8.210   -4.225
  860.000 -999.000  299.021    4.634    8.220   -4.200
  865.000 -999.000  299.121    4.608    8.230   -4.175
  870.000 -999.000  299.217    4.582    8.240   -4.150
  875.000 -999.000  299.309    4.556    8.250   -4.125
  880.000 -999.000  299.397    4.531    8.260   -4.100
  885.000 -999.000  299.481    4.506    8.270   -4.075
  890.000 -999.000  299.563    4.481    8.280   -4.050
  895.000 -999.000  299.642    4.456    8.290   -4.025
  900.000 -999.000  299.718    4.432    8.300   -4.000
  905.000 -999.000  299.791    4.408    8.310   -3.975
  910.000 -999.000  299.863    4.384    8.320   -3.950
  915.000 -999.000  299.932    4.360    8.330   -3.925
  920.000 -999.000  300.000    4.336    8.340   -3.900
  925.000 -999.000  300.066    4.313    8.350   -3.875
  930.000 -999.000  300.130    4.290    8.360   -3.850
  935.000 -999.000  300.192    4.267    8.370   -3.825
  940.000 -999.000  300.254    4.245    8.380   -3.800
  945.000 -999.000  300.313    4.222    8.390   -3.775
  950.000 -999.000  300.372    4.200    8.400   -3.750
  955.000 -999.000  300.429    4.178    8.410   -3.725
  960.000 -999.000  300.485    4.157    8.420   -3.700
  965.000 -999.000  300.540    4.135    8.430   -3.675
  970.000 -999.000  300.593    4.114    8.440   -3.650
  975.000 -999.000  300.646    4.093    8.450   -3.625
  980.000 -999.000  300.698    4.072    8.460   -3.600
  985.000 -999.000  300.749    4.052    8.470   -3.575
  990.000 -999.000  300.799    4.031    8.480   -3.550
  995.000 -999.000  300.848    4.011    8.490   -3.525
 1000.000 -999.000  300.896    3.991    8.500   -3.500
 1005.000 -999.000  300.944    3.971    8.510   -3.475
 1010.000 -999.000  300.991    3.952    8.520   -3.450
 1015.000 -999.000  301.037    3.932    8.530   -3.425
 1020.000 -999.000  301.082    3.913    8.540   -3.400
 1025.000 -999.000  301.127    3.894    8.550   -3.375
 1030.000 -999.000  301.171    3.875    8.560   -3.350
 1035.000 -999.000  301.214    3.856    8.570   -3.325
 1040.000 -999.000  301.257    3.838    8.580   -3.300
 1045.000 -999.000  301.300    3.820    8.590   -3.275
 1050.000 -999.000  301.341    3.801    8.600   -3.250
 1055.000 -999.000  301.383    3.784    8.610   -3.225
 1060.000 -999.000  301.423    3.766    8.620   -3.200
 1065.000 -999.000  301.463    3.748    8.630   -3.175
 1070.000 -999.000  301.503    3.731    8.640   -3.150
 1075.000 -999.000  301.542    3.714    8.650   -3.125
 1080.000 -999.000  301.581    3.697    8.660   -3.100
 1085.000 -999.000  301.619    3.680    8.670   -3.075
 1090.000 -999.000  301.657    3.663    8.680   -3.050
 1095.000 -999.000  301.694    3.646    8.690   -3.025
 1100.000 -999.000  301.731    3.630    8.700   -3.000
 1105.000 -999.000  301.768    3.614    8.710   -2.975
 1110.000 -999.000  301.804    3.598    8.720   -2.950
 1115.000 -999.000  301.840    3.582    8.730   -2.925
 1120.000 -999.000  301.875    3.566    8.740   -2.900
 1125.000 -999.000  301.910    3.551    8.750   -2.875
 1130.000 -999.000  301.945    3.535    8.760   -2.850
 1135.000 -999.000  301.980    3.520    8.770   -2.825
 1140.000 -999.000  302.014    3.505    8.780   -2.800
 1145.000 -999.000  302.047    3.490    8.790   -2.775
 1150.000 -999.000  302.081    3.475    8.800   -2.750
 1155.000 -999.000  302.114    3.460    8.810   -2.725
 1160.000 -999.000  302.147    3.446    8.820   -2.700
 1165.000 -999.000  302.179    3.431    8.830   -2.675
 1170.000 -999.000  302.211    3.417    8.840   -2.650
 1175.000 -999.000  302.243    3.403    8.850   -2.625
 1180.000 -999.000  302.275    3.389    8.860   -2.600
 1185.000 -999.000  302.306    3.375    8.870   -2.575
 1190.000 -999.000  302.337    3.362    8.880   -2.550
 1195.000 -999.000  302.368    3.348    8.890   -2.525
 1200.000 -999.000  302.399    3.335    8.900   -2.500
 1205.000 -999.000  302.429    3.321    8.910   -2.475
 1210.000 -999.000  302.459    3.308    8.920   -2.450
 1215.000 -999.000  302.489    3.295    8.930   -2.425
 1220.000 -999.000  302.518    3.282    8.940   -2.400
 1225.000 -999.000  302.548    3.269    8.950   -2.375
 1230.000 -999.000  302.577    3.257    8.960   -2.350
 1235.000 -999.000  302.606    3.244    8.970   -2.325
 1240.000 -999.000  302.635    3.232    8.980   -2.300
 1245.000 -999.000  302.663    3.220    8.990   -2.275
 1250.000 -999.000  302.691    3.208    9.000   -2.250
 1255.000 -999.000  302.719    3.196    9.010   -2.225
 1260.000 -999.000  302.747    3.184    9.020   -2.200
 1265.000 -999.000  302.775    3.172    9.030   -2.175
 1270.000 -999.000  302.802    3.160    9.040   -2.150
 1275.000 -999.000  302.830    3.149    9.050   -2.125
 1280.000 -999.000  302.857    3.137    9.060   -2.100
 1285.000 -999.000  302.884    3.126    9.070   -2.075
 1290.000 -999.000  302.910    3.115    9.080   -2.050
 1295.000 -999.000  302.937    3.104    9.090   -2.025
 1300.000 -999.000  302.963    3.093    9.100   -2.000
 1305.000 -999.000  302.990    3.082    9.110   -1.975
 1310.000 -999.000  303.016    3.071    9.120   -1.950
 1315.000 -999.000  303.041    3.060    9.130   -1.925
 1320.000 -999.000  303.067    3.050    9.140   -1.900
 1325.000 -999.000  303.093    3.039    9.150   -1.875
 1330.000 -999.000  303.118    3.029    9.160   -1.850
 1335.000 -999.000  303.143    3.019    9.170   -1.825
 1340.000 -999.000  303.168    3.009    9.180   -1.800
 1345.000 -999.000  303.193    2.999    9.190   -1.775
 1350.000 -999.000  303.218    2.989    9.200   -1.750
 1355.000 -999.000  303.243    2.979    9.210   -1.725
 1360.000 -999.000  303.267    2.969    9.220   -1.700
 1365.000 -999.000  303.291    2.959    9.230   -1.675
 1370.000 -999.000  303.315    2.950    9.240   -1.650
 1375.000 -999.000  303.340    2.940    9.250   -1.625
 1380.000 -999.000  303.363    2.931    9.260   -1.600
 1385.000 -999.000  303.387    2.922    9.270   -1.575
 1390.000 -999.000  303.411    2.913    9.280   -1.550
 1395.000 -999.000  303.434    2.904    9.290   -1.525
 1400.000 -999.000  303.458    2.895    9.300   -1.500
 1405.000 -999.000  303.481    2.886    9.310   -1.475
 1410.000 -999.000  303.504    2.877    9.320   -1.450
 1415.000 -999.000  303.527    2.868    9.330   -1.425
 1420.000 -999.000  303.550    2.860    9.340   -1.400
 1425.000 -999.000  303.573    2.851    9.350   -1.375
 1430.000 -999.000  303.595    2.842    9.360   -1.350
 1435.000 -999.000  303.618    2.834    9.370   -1.325
 1440.000 -999.000  303.640    2.826    9.380   -1.300
 1445.000 -999.000  303.662    2.818    9.390   -1.275
 1450.000 -999.000  303.685    2.809    9.400   -1.250
 1455.000 -999.000  303.707    2.801    9.410   -1.225
 1460.000 -999.000  303.728    2.793    9.420   -1.200
 1465.000 -999.000  303.750    2.786    9.430   -1.175
 1470.000 -999.000  303.772    2.778    9.440   -1.150
 1475.000 -999.000  303.794    2.770    9.450   -1.125
 1480.000 -999.000  303.815    2.762    9.460   -1.100
 1485.000 -999.000  303.837    2.755    9.470   -1.075
 1490.000 -999.000  303.858    2.747    9.480   -1.050
 1495.000 -999.000  303.879    2.740    9.490   -1.025
 1500.000 -999.000  303.900    2.732    9.500   -1.000
 1505.000 -999.000  303.921    2.725    9.510   -0.975
 1510.000 -999.000  303.942    2.718    9.520   -0.950
 1515.000 -999.000  303.963    2.711    9.530   -0.925
 1520.000 -999.000  303.983    2.704    9.540   -0.900
 1525.000 -999.000  304.004    2.697    9.550   -0.875
 1530.000 -999.000  304.025    2.690    9.560   -0.850
 1535.000 -999.000  304.045    2.683    9.570   -0.825
 1540.000 -999.000  304.065    2.676    9.580   -0.800
 1545.000 -999.000  304.086    2.669    9.590   -0.775
 1550.000 -999.000  304.106    2.663    9.600   -0.750
 1555.000 -999.000  304.126    2.656    9.610   -0.725
 1560.000 -999.000  304.146    2.650    9.620   -0.700
 1565.000 -999.000  304.166    2.643    9.630   -0.675
 1570.000 -999.000  304.185    2.637    9.640   -0.650
 1575.000 -999.000  304.205    2.630    9.650   -0.625
 1580.000 -999.000  304.225    2.624    9.660   -0.600
 1585.000 -999.000  304.244    2.618    9.670   -0.575
 1590.000 -999.000  304.264    2.612    9.680   -0.550
 1595.000 -999.000  304.283    2.606    9.690   -0.525
 100.,  320, 1017.80  day,levels,pres0
    0.000 -999.000  288.300    9.450    6.500   -8.500
    5.000 -999.000  288.300    9.450    6.510   -8.475
   10.000 -999.000  288.300    9.450    6.520   -8.450
   15.000 -999.000  288.300    9.450    6.530   -8.425
   20.000 -999.000  288.300    9.450    6.540   -8.400
   25.000 -999.000  288.300    9.450    6.550   -8.375
   30.000 -999.000  288.300    9.450    6.560   -8.350
   35.000 -999.000  288.300    9.450    6.570   -8.325
   40.000 -999.000  288.300    9.450    6.580   -8.300
   45.000 -999.000  288.300    9.450    6.590   -8.275
   50.000 -999.000  288.300    9.450    6.600   -8.250
   55.000 -999.000  288.300    9.450    6.610   -8.225
   60.000 -999.000  288.300    9.450    6.620   -8.200
   65.000 -999.000  288.300    9.450    6.630   -8.175
   70.000 -999.000  288.300    9.450    6.640   -8.150
   75.000 -999.000  288.300    9.450    6.650   -8.125
   80.000 -999.000  288.300    9.450    6.660   -8.100
   85.000 -999.000  288.300    9.450    6.670   -8.075
   90.000 -999.000  288.300    9.450    6.680   -8.050
   95.000 -999.000  288.300    9.450    6.690   -8.025
  100.000 -999.000  288.300    9.450    6.700   -8.000
  105.000 -999.000  288.300    9.450    6.710   -7.975
  110.000 -999.000  288.300    9.450    6.720   -7.950
  115.000 -999.000  288.300    9.450    6.730   -7.925
  120.000 -999.000  288.300    9.450    6.740   -7.900
  125.000 -999.000  288.300    9.450    6.750   -7.875
  130.000 -999.000  288.300    9.450    6.760   -7.850
  135.000 -999.000  288.300    9.450    6.770   -7.825
  140.000 -999.000  288.300    9.450    6.780   -7.800
  145.000 -999.000  288.300    9.450    6.790   -7.775
  150.000 -999.000  288.300    9.450    6.800   -7.750
  155.000 -999.000  288.300    9.450    6.810   -7.725
  160.000 -999.000  288.300    9.450    6.820   -7.700
  165.000 -999.000  288.300    9.450    6.830   -7.675
  170.000 -999.000  288.300    9.450    6.840   -7.650
  175.000 -999.000  288.300    9.450    6.850   -7.625
  180.000 -999.000  288.300    9.450    6.860   -7.600
  185.000 -999.000  288.300    9.450    6.870   -7.575
  190.000 -999.000  288.300    9.450    6.880   -7.550
  195.000 -999.000  288.300    9.450    6.890   -7.525
  200.000 -999.000  288.300    9.450    6.900   -7.500
  205.000 -999.000  288.300    9.450    6.910   -7.475
  210.000 -999.000  288.300    9.450    6.920   -7.450
  215.000 -999.000  288.300    9.450    6.930   -7.425
  220.000 -999.000  288.300    9.450    6.940   -7.400
  225.000 -999.000  288.300    9.450    6.950   -7.375
  230.000 -999.000  288.300    9.450    6.960   -7.350
  235.000 -999.000  288.300    9.450    6.970   -7.325
  240.000 -999.000  288.300    9.450    6.980   -7.300
  245.000 -999.000  288.300    9.450    6.990   -7.275
  250.000 -999.000  288.300    9.450    7.000   -7.250
  255.000 -999.000  288.300    9.450    7.010   -7.225
  260.000 -999.000  288.300    9.450    7.020   -7.200
  265.000 -999.000  288.300    9.450    7.030   -7.175
  270.000 -999.000  288.300    9.450    7.040   -7.150
  275.000 -999.000  288.300    9.450    7.050   -7.125
  280.000 -999.000  288.300    9.450    7.060   -7.100
  285.000 -999.000  288.300    9.450    7.070   -7.075
  290.000 -999.000  288.300    9.450    7.080   -7.050
  295.000 -999.000  288.300    9.450    7.090   -7.025
  300.000 -999.000  288.300    9.450    7.100   -7.000
  305.000 -999.000  288.300    9.450    7.110   -6.975
  310.000 -999.000  288.300    9.450    7.120   -6.950
  315.000 -999.000  288.300    9.450    7.130   -6.925
  320.000 -999.000  288.300    9.450    7.140   -6.900
  325.000 -999.000  288.300    9.450    7.150   -6.875
  330.000 -999.000  288.300    9.450    7.160   -6.850
  335.000 -999.000  288.300    9.450    7.170   -6.825
  340.000 -999.000  288.300    9.450    7.180   -6.800
  345.000 -999.000  288.300    9.450    7.190   -6.775
  350.000 -999.000  288.300    9.450    7.200   -6.750
  355.000 -999.000  288.300    9.450    7.210   -6.725
  360.000 -999.000  288.300    9.450    7.220   -6.700
  365.000 -999.000  288.300    9.450    7.230   -6.675
  370.000 -999.000  288.300    9.450    7.240   -6.650
  375.000 -999.000  288.300    9.450    7.250   -6.625
  380.000 -999.000  288.300    9.450    7.260   -6.600
  385.000 -999.000  288.300    9.450    7.270   -6.575
  390.000 -999.000  288.300    9.450    7.280   -6.550
  395.000 -999.000  288.300    9.450    7.290   -6.525
  400.000 -999.000  288.300    9.450    7.300   -6.500
  405.000 -999.000  288.300    9.450    7.310   -6.475
  410.000 -999.000  288.300    9.450    7.320   -6.450
  415.000 -999.000  288.300    9.450    7.330   -6.425
  420.000 -999.000  288.300    9.450    7.340   -6.400
  425.000 -999.000  288.300    9.450    7.350   -6.375
  430.000 -999.000  288.300    9.450    7.360   -6.350
  435.000 -999.000  288.300    9.450    7.370   -6.325
  440.000 -999.000  288.300    9.450    7.380   -6.300
  445.000 -999.000  288.300    9.450    7.390   -6.275
  450.000 -999.000  288.300    9.450    7.400   -6.250
  455.000 -999.000  288.300    9.450    7.410   -6.225
  460.000 -999.000  288.300    9.450    7.420   -6.200
  465.000 -999.000  288.300    9.450    7.430   -6.175
  470.000 -999.000  288.300    9.450    7.440   -6.150
  475.000 -999.000  288.300    9.450    7.450   -6.125
  480.000 -999.000  288.300    9.450    7.460   -6.100
  485.000 -999.000  288.300    9.450    7.470   -6.075
  490.000 -999.000  288.300    9.450    7.480   -6.050
  495.000 -999.000  288.300    9.450    7.490   -6.025
  500.000 -999.000  288.300    9.450    7.500   -6.000
  505.000 -999.000  288.300    9.450    7.510   -5.975
  510.000 -999.000  288.300    9.450    7.520   -5.950
  515.000 -999.000  288.300    9.450    7.530   -5.925
  520.000 -999.000  288.300    9.450    7.540   -5.900
  525.000 -999.000  288.300    9.450    7.550   -5.875
  530.000 -999.000  288.300    9.450    7.560   -5.850
  535.000 -999.000  288.300    9.450    7.570   -5.825
  540.000 -999.000  288.300    9.450    7.580   -5.800
  545.000 -999.000  288.300    9.450    7.590   -5.775
  550.000 -999.000  288.300    9.450    7.600   -5.750
  555.000 -999.000  288.300    9.450    7.610   -5.725
  560.000 -999.000  288.300    9.450    7.620   -5.700
  565.000 -999.000  288.300    9.450    7.630   -5.675
  570.000 -999.000  288.300    9.450    7.640   -5.650
  575.000 -999.000  288.300    9.450    7.650   -5.625
  580.000 -999.000  288.300    9.450    7.660   -5.600
  585.000 -999.000  288.300    9.450    7.670   -5.575
  590.000 -999.000  288.300    9.450    7.680   -5.550
  595.000 -999.000  288.300    9.450    7.690   -5.525
  600.000 -999.000  288.300    9.450    7.700   -5.500
  605.000 -999.000  288.300    9.450    7.710   -5.475
  610.000 -999.000  288.300    9.450    7.720   -5.450
  615.000 -999.000  288.300    9.450    7.730   -5.425
  620.000 -999.000  288.300    9.450    7.740   -5.400
  625.000 -999.000  288.300    9.450    7.750   -5.375
  630.000 -999.000  288.300    9.450    7.760   -5.350
  635.000 -999.000  288.300    9.450    7.770   -5.325
  640.000 -999.000  288.300    9.450    7.780   -5.300
  645.000 -999.000  288.300    9.450    7.790   -5.275
  650.000 -999.000  288.300    9.450    7.800   -5.250
  655.000 -999.000  288.300    9.450    7.810   -5.225
  660.000 -999.000  288.300    9.450    7.820   -5.200
  665.000 -999.000  288.300    9.450    7.830   -5.175
  670.000 -999.000  288.300    9.450    7.840   -5.150
  675.000 -999.000  288.300    9.450    7.850   -5.125
  680.000 -999.000  288.300    9.450    7.860   -5.100
  685.000 -999.000  288.300    9.450    7.870   -5.075
  690.000 -999.000  288.300    9.450    7.880   -5.050
  695.000 -999.000  288.300    9.450    7.890   -5.025
  700.000 -999.000  288.300    9.450    7.900   -5.000
  705.000 -999.000  288.300    9.450    7.910   -4.975
  710.000 -999.000  288.300    9.450    7.920   -4.950
  715.000 -999.000  288.300    9.450    7.930   -4.925
  720.000 -999.000  288.300    9.450    7.940   -4.900
  725.000 -999.000  288.300    9.450    7.950   -4.875
  730.000 -999.000  288.300    9.450    7.960   -4.850
  735.000 -999.000  288.300    9.450    7.970   -4.825
  740.000 -999.000  288.300    9.450    7.980   -4.800
  745.000 -999.000  288.300    9.450    7.990   -4.775
  750.000 -999.000  288.300    9.450    8.000   -4.750
  755.000 -999.000  288.300    9.450    8.010   -4.725
  760.000 -999.000  288.300    9.450    8.020   -4.700
  765.000 -999.000  288.300    9.450    8.030   -4.675
  770.000 -999.000  288.300    9.450    8.040   -4.650
  775.000 -999.000  288.300    9.450    8.050   -4.625
  780.000 -999.000  288.300    9.450    8.060   -4.600
  785.000 -999.000  288.300    9.450    8.070   -4.575
  790.000 -999.000  288.300    9.450    8.080   -4.550
  795.000 -999.000  288.300    9.450    8.090   -4.525
  800.000 -999.000  296.710    4.970    8.100   -4.500
  805.000 -999.000  297.154    4.941    8.110   -4.475
  810.000 -999.000  297.466    4.911    8.120   -4.450
  815.000 -999.000  297.714    4.882    8.130   -4.425
  820.000 -999.000  297.924    4.854    8.140   -4.400
  825.000 -999.000  298.107    4.825    8.150   -4.375
  830.000 -999.000  298.271    4.797    8.160   -4.350
  835.000 -999.000  298.420    4.769    8.170   -4.325
  840.000 -999.000  298.557    4.742    8.180   -4.300
  845.000 -999.000  298.684    4.715    8.190   -4.275
  850.000 -999.000  298.803    4.688    8.200   -4.250
  855.000 -999.000  298.915    4.661    8.210   -4.225
  860.000 -999.000  299.021    4.634    8.220   -4.200
  865.000 -999.000  299.121    4.608    8.230   -4.175
  870.000 -999.000  299.217    4.582    8.240   -4.150
  875.000 -999.000  299.309    4.556    8.250   -4.125
  880.000 -999.000  299.397    4.531    8.260   -4.100
  885.000 -999.000  299.481    4.506    8.270   -4.075
  890.000 -999.000  299.563    4.481    8.280   -4.050
  895.000 -999.000  299.642    4.456    8.290   -4.025
  900.000 -999.000  299.718    4.432    8.300   -4.000
  905.000 -999.000  299.791    4.408    8.310   -3.975
  910.000 -999.000  299.863    4.384    8.320   -3.950
  915.000 -999.000  299.932    4.360    8.330   -3.925
  920.000 -999.000  300.000    4.336    8.340   -3.900
  925.000 -999.000  300.066    4.313    8.350   -3.875
  930.000 -999.000  300.130    4.290    8.360   -3.850
  935.000 -999.000  300.192    4.267    8.370   -3.825
  940.000 -999.000  300.254    4.245    8.380   -3.800
  945.000 -999.000  300.313    4.222    8.390   -3.775
  950.000 -999.000  300.372    4.200    8.400   -3.750
  955.000 -999.000  300.429    4.178    8.410   -3.725
  960.000 -999.000  300.485    4.157    8.420   -3.700
  965.000 -999.000  300.540    4.135    8.430   -3.675
  970.000 -999.000  300.593    4.114    8.440   -3.650
  975.000 -999.000  300.646    4.093    8.450   -3.625
  980.000 -999.000  300.698    4.072    8.460   -3.600
  985.000 -999.000  300.749    4.052    8.470   -3.575
  990.000 -999.000  300.799    4.031    8.480   -3.550
  995.000 -999.000  300.848    4.011    8.490   -3.525
 1000.000 -999.000  300.896    3.991    8.500   -3.500
 1005.000 -999.000  300.944    3.971    8.510   -3.475
 1010.000 -999.000  300.991    3.952    8.520   -3.450
 1015.000 -999.000  301.037    3.932    8.530   -3.425
 1020.000 -999.000  301.082    3.913    8.540   -3.400
 1025.000 -999.000  301.127    3.894    8.550   -3.375
 1030.000 -999.000  301.171    3.875    8.560   -3.350
 1035.000 -999.000  301.214    3.856    8.570   -3.325
 1040.000 -999.000  301.257    3.838    8.580   -3.300
 1045.000 -999.000  301.300    3.820    8.590   -3.275
 1050.000 -999.000  301.341    3.801    8.600   -3.250
 1055.000 -999.000  301.383    3.784    8.610   -3.225
 1060.000 -999.000  301.423    3.766    8.620   -3.200
 1065.000 -999.000  301.463    3.748    8.630   -3.175
 1070.000 -999.000  301.503    3.731    8.640   -3.150
 1075.000 -999.000  301.542    3.714    8.650   -3.125
 1080.000 -999.000  301.581    3.697    8.660   -3.100
 1085.000 -999.000  301.619    3.680    8.670   -3.075
 1090.000 -999.000  301.657    3.663    8.680   -3.050
 1095.000 -999.000  301.694    3.646    8.690   -3.025
 1100.000 -999.000  301.731    3.630    8.700   -3.000
 1105.000 -999.000  301.768    3.614    8.710   -2.975
 1110.000 -999.000  301.804    3.598    8.720   -2.950
 1115.000 -999.000  301.840    3.582    8.730   -2.925
 1120.000 -999.000  301.875    3.566    8.740   -2.900
 1125.000 -999.000  301.910    3.551    8.750   -2.875
 1130.000 -999.000  301.945    3.535    8.760   -2.850
 1135.000 -999.000  301.980    3.520    8.770   -2.825
 1140.000 -999.000  302.014    3.505    8.780   -2.800
 1145.000 -999.000  302.047    3.490    8.790   -2.775
 1150.000 -999.000  302.081    3.475    8.800   -2.750
 1155.000 -999.000  302.114    3.460    8.810   -2.725
 1160.000 -999.000  302.147    3.446    8.820   -2.700
 1165.000 -999.000  302.179    3.431    8.830   -2.675
 1170.000 -999.000  302.211    3.417    8.840   -2.650
 1175.000 -999.000  302.243    3.403    8.850   -2.625
 1180.000 -999.000  302.275    3.389    8.860   -2.600
 1185.000 -999.000  302.306    3.375    8.870   -2.575
 1190.000 -999.000  302.337    3.362    8.880   -2.550
 1195.000 -999.000  302.368    3.348    8.890   -2.525
 1200.000 -999.000  302.399    3.335    8.900   -2.500
 1205.000 -999.000  302.429    3.321    8.910   -2.475
 1210.000 -999.000  302.459    3.308    8.920   -2.450
 1215.000 -999.000  302.489    3.295    8.930   -2.425
 1220.000 -999.000  302.518    3.282    8.940   -2.400
 1225.000 -999.000  302.548    3.269    8.950   -2.375
 1230.000 -999.000  302.577    3.257    8.960   -2.350
 1235.000 -999.000  302.606    3.244    8.970   -2.325
 1240.000 -999.000  302.635    3.232    8.980   -2.300
 1245.000 -999.000  302.663    3.220    8.990   -2.275
 1250.000 -999.000  302.691    3.208    9.000   -2.250
 1255.000 -999.000  302.719    3.196    9.010   -2.225
 1260.000 -999.000  302.747    3.184    9.020   -2.200
 1265.000 -999.000  302.775    3.172    9.030   -2.175
 1270.000 -999.000  302.802    3.160    9.040   -2.150
 1275.000 -999.000  302.830    3.149    9.050   -2.125
 1280.000 -999.000  302.857    3.137    9.060   -2.100
 1285.000 -999.000  302.884    3.126    9.070   -2.075
 1290.000 -999.000  302.910    3.115    9.080   -2.050
 1295.000 -999.000  302.937    3.104    9.090   -2.025
 1300.000 -999.000  302.963    3.093    9.100   -2.000
 1305.000 -999.000  302.990    3.082    9.110   -1.975
 1310.000 -999.000  303.016    3.071    9.120   -1.950
 1315.000 -999.000  303.041    3.060    9.130   -1.925
 1320.000 -999.000  303.067    3.050    9.140   -1.900
 1325.000 -999.000  303.093    3.039    9.150   -1.875
 1330.000 -999.000  303.118    3.029    9.160   -1.850
 1335.000 -999.000  303.143    3.019    9.170   -1.825
 1340.000 -999.000  303.168    3.009    9.180   -1.800
 1345.000 -999.000  303.193    2.999    9.190   -1.775
 1350.000 -999.000  303.218    2.989    9.200   -1.750
 1355.000 -999.000  303.243    2.979    9.210   -1.725
 1360.000 -999.000  303.267    2.969    9.220   -1.700
 1365.000 -999.000  303.291    2.959    9.230   -1.675
 1370.000 -999.000  303.315    2.950    9.240   -1.650
 1375.000 -999.000  303.340    2.940    9.250   -1.625
 1380.000 -999.000  303.363    2.931    9.260   -1.600
 1385.000 -999.000  303.387    2.922    9.270   -1.575
 1390.000 -999.000  303.411    2.913    9.280   -1.550
 1395.000 -999.000  303.434    2.904    9.290   -1.525
 1400.000 -999.000  303.458    2.895    9.300   -1.500
 1405.000 -999.000  303.481    2.886    9.310   -1.475
 1410.000 -999.000  303.504    2.877    9.320   -1.450
 1415.000 -999.000  303.527    2.868    9.330   -1.425
 1420.000 -999.000  303.550    2.860    9.340   -1.400
 1425.000 -999.000  303.573    2.851    9.350   -1.375
 1430.000 -999.000  303.595    2.842    9.360   -1.350
 1435.000 -999.000  303.618    2.834    9.370   -1.325
 1440.000 -999.000  303.640    2.826    9.380   -1.300
 1445.000 -999.000  303.662    2.818    9.390   -1.275
 1450.000 -999.000  303.685    2.809    9.400   -1.250
 1455.000 -999.000  303.707    2.801    9.410   -1.225
 1460.000 -999.000  303.728    2.793    9.420   -1.200
 1465.000 -999.000  303.750    2.786    9.430   -1.175
 1470.000 -999.000  303.772    2.778    9.440   -1.150
 1475.000 -999.000  303.794    2.770    9.450   -1.125
 1480.000 -999.000  303.815    2.762    9.460   -1.100
 1485.000 -999.000  303.837    2.755    9.470   -1.075
 1490.000 -999.000  303.858    2.747    9.480   -1.050
 1495.000 -999.000  303.879    2.740    9.490   -1.025
 1500.000 -999.000  303.900    2.732    9.500   -1.000
 1505.000 -999.000  303.921    2.725    9.510   -0.975
 1510.000 -999.000  303.942    2.718    9.520   -0.950
 1515.000 -999.000  303.963    2.711    9.530   -0.925
 1520.000 -999.000  303.983    2.704    9.540   -0.900
 1525.000 -999.000  304.004    2.697    9.550   -0.875
 1530.000 -999.000  304.025    2.690    9.560   -0.850
 1535.000 -999.000  304.045    2.683    9.570   -0.825
 1540.000 -999.000  304.065    2.676    9.580   -0.800
 1545.000 -999.000  304.086    2.669    9.590   -0.775
 1550.000 -999.000  304.106    2.663    9.600   -0.750
 1555.000 -999.000  304.126    2.656    9.610   -0.725
 1560.000 -999.000  304.146    2.650    9.620   -0.700
 1565.000 -999.000  304.166    2.643    9.630   -0.675
 1570.000 -999.000  304.185    2.637    9.640   -0.650
 1575.000 -999.000  304.205    2.630    9.650   -0.625
 1580.000 -999.000  304.225    2.624    9.660   -0.600
 1585.000 -999.000  304.244    2.618    9.670   -0.575
 1590.000 -999.000  304.264    2.612    9.680   -0.550
 1595.000 -999.000  304.283    2.606    9.690   -0.525
