  day sst(K) H(W/m2) LE(W/m2) TAU(m2/s2)
    61.729   282.889   220.065   109.811     0.000
    61.854   284.849   195.006    93.037     0.000
    61.979   285.198    21.428    43.464     0.000
    62.104   284.255   -12.149    26.399     0.000
    62.229   283.386    12.774     2.358     0.000
    62.354   282.913     7.976    37.096     0.000
    62.479   282.523     0.603    29.637     0.000
    62.604   282.218    17.642    33.558     0.000
    62.729   282.090    15.171    64.752     0.000
    62.854   282.048     8.217    68.126     0.000
    62.979   281.967    21.480    26.383     0.000
    63.104   281.716    19.617    12.759     0.000
    63.229   281.404    -0.220    31.626     0.000
    63.354   281.081    19.383    18.438     0.000
    63.479   280.865    25.729    13.724     0.000
    63.604   280.636    40.886    22.436     0.000
    63.729   282.164    65.675   104.828     0.000
    63.854   281.436    81.443    91.798     0.000
    63.979   281.826    13.435    33.906     0.000
    64.104   281.255     9.464    -0.839     0.000
    64.229   280.473    11.685     9.710     0.000
    64.354   279.903    14.239     9.703     0.000
    64.479   279.411    17.361     6.398     0.000
    64.604   280.097    76.849   101.053     0.000
    64.729   281.035   177.382   166.853     0.000
    64.854   283.656   179.364   130.134     0.000
    64.979   284.277    20.904    56.757     0.000
    65.104   283.247   -20.510    -9.129     0.000
    65.229   282.302    -9.934     7.508     0.000
    65.354   281.581     9.755    -8.018     0.000
    65.479   281.008     5.490    -5.856     0.000
    65.604   280.767    70.605    63.667     0.000
    65.729   282.197   230.750   128.016     0.000
    65.854   284.333   171.325   132.872     0.000
    65.979   284.796    21.314    54.726     0.000
    66.104   284.165    -5.618    -4.956     0.000
    66.229   283.604   -31.841    -3.010     0.000
    66.354   283.170     6.232   -14.824     0.000
    66.479   282.811     2.233    -9.261     0.000
    66.604   282.737    72.315    58.146     0.000
    66.729   284.273   222.465   133.452     0.000
    66.854   286.482   152.421   114.027     0.000
    66.979   287.107    -4.973    23.374     0.000
    67.104   286.565   -29.200   -11.277     0.000
    67.229   286.087   -29.363   -14.637     0.000
    67.354   285.811   -20.690   -14.402     0.000
    67.479   285.526   -15.354   -18.112     0.000
    67.604   285.533    23.400    32.718     0.000
    67.729   286.228   123.576    71.548     0.000
    67.854   287.268    82.253    55.867     0.000
    67.979   287.564    -4.393    14.476     0.000
    68.104   287.235   -11.954     3.074     0.000
    68.229   286.567   -10.070     2.025     0.000
    68.354   285.740   -46.108    29.917     0.000
    68.479   284.937   -56.448    31.238     0.000
    68.604   284.415    44.729   101.427     0.000
    68.729   285.119   210.828   189.496     0.000
    68.854   286.631   190.058   141.845     0.000
    68.979   286.871    12.916    51.351     0.000
    69.104   285.774   -47.250    12.797     0.000
    69.229   284.699   -36.910     5.776     0.000
    69.354   283.824   -33.156     2.709     0.000
    69.479   283.000   -25.883     0.604     0.000
    69.604   282.436    90.047    51.961     0.000
    69.729   283.415   287.887   108.244     0.000
    69.854   285.304   233.758    83.347     0.000
    69.979   285.608    29.540    22.031     0.000
    70.104   284.431   -17.238     0.330     0.000
    70.229   283.426   -10.711     3.194     0.000
    70.354   282.732    -3.831     0.627     0.000
    70.479   282.177    -1.942     1.870     0.000
    70.604   281.814    51.760    34.118     0.000
    70.729   282.236   168.425    68.713     0.000
    70.854   282.834   121.784    54.186     0.000
    70.979   282.615     7.333    23.053     0.000
    71.104   281.843    13.712     3.955     0.000
    71.229   281.290     2.986    10.547     0.000
    71.354   280.930     2.265     9.268     0.000
    71.479   280.537    -6.737   -10.125     0.000
    71.604   280.288    73.867    76.495     0.000
    71.729   281.208   217.681   165.275     0.000
    71.854   282.972   230.783   104.771     0.000
    71.979   283.439    19.778    26.267     0.000
    72.104   282.290   -19.887    -3.564     0.000
    72.229   281.198   -11.945    -4.395     0.000
    72.354   280.434    -6.393    -3.373     0.000
    72.479   279.878    -4.820    -5.207     0.000
    72.604   279.679    78.979    63.080     0.000
    72.729   281.039   251.710   120.939     0.000
    72.854   283.035   206.718    91.292     0.000
    72.979   283.544    16.672    24.717     0.000
    73.104   282.877   -16.979    -2.353     0.000
    73.229   282.148   -11.304    -3.617     0.000
    73.354   281.546   -11.857    -0.996     0.000
    73.479   281.031    -8.027    -5.760     0.000
    73.604   280.754    77.335    53.960     0.000
    73.729   282.341   229.250    84.942     0.000
    73.854   284.512   173.352    73.901     0.000
    73.979   284.957    17.362    15.684     0.000
    74.104   284.076   -16.893     0.517     0.000
    74.229   283.343    -3.567    -3.817     0.000
    74.354   282.931    -6.956    -3.652     0.000
    74.479   282.555   -17.375     5.434     0.000
    74.604   282.484    40.431    53.294     0.000
    74.729   283.688   154.612    68.262     0.000
    74.854   285.606   158.807    62.898     0.000
    74.979   286.165    26.805    30.391     0.000
    75.104   285.293   -16.173   -13.254     0.000
    75.229   284.542   -18.417   -14.623     0.000
    75.354   284.035    -6.613    -0.384     0.000
    75.479   284.070    -5.121     0.586     0.000
    75.604   284.063    34.979    44.124     0.000
    75.729   284.884   172.854    95.065     0.000
    75.854   286.350   134.258    91.806     0.000
    75.979   286.585    -6.569    33.406     0.000
    76.104   285.732     3.400    -1.380     0.000
    76.229   284.745    -0.367    20.115     0.000
    76.354   283.845     7.188    25.481     0.000
    76.479   282.991     0.160    26.243     0.000
    76.604   282.354    10.848    33.736     0.000
    76.729   281.858    26.931    43.391     0.000
    76.854   281.481    21.244    48.919     0.000
    76.979   281.016    19.615    28.950     0.000
    77.104   280.897    -4.912    59.394     0.000
    77.229   280.548     8.253    17.850     0.000
    77.354   280.438     2.451    10.678     0.000
    77.479   280.320     3.086    13.912     0.000
    77.604   280.245     5.040    34.612     0.000
    77.729   283.124    31.870    56.620     0.000
    77.854   283.193    21.559    56.274     0.000
    77.979   284.340     5.590    15.718     0.000
    78.104   280.843     0.885     5.220     0.000
    78.229   280.759     1.051     4.662     0.000
    78.354   280.704     0.713     4.102     0.000
    78.479   280.654    -0.376     5.137     0.000
    78.604   284.035    19.744    26.240     0.000
    78.729   283.842    20.645    48.229     0.000
    78.854   283.328    18.400    37.721     0.000
    78.979   284.660     6.121    14.990     0.000
    79.104   281.282     3.228     5.310     0.000
    79.229   280.927     4.947     6.725     0.000
    79.354   280.602     1.658    18.634     0.000
    79.479   280.273    -5.182    15.120     0.000
    79.604   283.041    20.353    76.772     0.000
    79.729   281.939   106.684   166.918     0.000
    79.854   283.245   163.742   150.700     0.000
    79.979   283.767    17.771    39.973     0.000
    80.104   282.716    -9.448   -13.132     0.000
    80.229   281.653    -0.316   -11.620     0.000
    80.354   280.899     7.497    -7.845     0.000
    80.479   280.359     1.044    -1.796     0.000
    80.604   280.117    82.519   106.984     0.000
    80.729   281.738   246.186   191.116     0.000
    80.854   284.186   165.732   194.728     0.000
    80.979   284.868    19.457    44.541     0.000
    81.104   284.087   -22.257   -11.569     0.000
    81.229   283.349   -15.497    -5.696     0.000
    81.354   282.815   -13.308    -6.949     0.000
    81.479   282.409    -0.636    -0.782     0.000
    81.604   282.324    18.903    27.389     0.000
    81.729   282.947    44.170    69.648     0.000
    81.854   283.710    67.965    56.930     0.000
    81.979   283.963    -1.736    28.275     0.000
    82.104   283.707    -8.436     2.495     0.000
    82.229   283.433     0.595    -5.194     0.000
    82.354   283.248    -1.858    -2.943     0.000
    83.354   283.248    -1.858    -2.943     0.000
