  day sst(K) H(W/m2) LE(W/m2) TAU(m2/s2)
   112.000   287.927     4.042     2.233     0.000
   112.125   287.545    -1.131    -0.547     0.000
   112.250   287.694    -6.120    -2.807     0.000
   112.375   288.498    -9.955    -2.247     0.000
   112.500   290.516    14.341    37.553     0.000
   112.625   293.268   112.535   105.791     0.000
   112.750   296.017   209.316   159.838     0.000
   112.875   296.978   202.205   138.719     0.000
   113.000   294.916    93.490    73.106     0.000
   113.125   291.570    -6.018    19.566     0.000
   113.250   288.867   -27.923     5.660     0.000
   113.375   287.850   -21.115    13.892     0.000
   113.500   287.626    -1.113    34.911     0.000
   113.625   287.737    42.325    60.352     0.000
   113.750   288.559   102.392    83.413     0.000
   113.875   289.018    98.519    74.648     0.000
   114.000   287.990    52.837    47.887     0.000
   114.125   285.898    -3.026    17.931     0.000
   114.250   283.873   -14.648     8.952     0.000
   114.375   282.577    -7.845     8.954     0.000
   114.500   282.397    18.849    24.497     0.000
   114.625   283.146    64.720    41.105     0.000
   114.750   284.404    90.631    54.225     0.000
   114.875   285.155    71.292    43.198     0.000
   115.000   285.132    29.026    27.979     0.000
   115.125   284.852     4.067    12.329     0.000
   115.250   284.532    -0.057     6.875     0.000
   115.375   284.447    -0.900     3.973     0.000
   115.500   284.740     7.254    16.607     0.000
   115.625   285.621    21.898    34.728     0.000
   115.750   286.747    39.057    60.552     0.000
   115.875   287.263    37.937    55.444     0.000
   116.000   286.372    17.815    40.176     0.000
   116.125   284.371    -6.022    13.513     0.000
   116.250   281.801   -17.183     4.864     0.000
   116.375   279.794    -8.768     5.762     0.000
   116.500   279.997    37.730    40.363     0.000
   116.625   282.398   123.829    91.332     0.000
   116.750   285.560   151.412   119.109     0.000
   116.875   287.074   118.043    98.503     0.000
   117.000   286.237    29.196    46.483     0.000
   117.125   284.680    -4.780    12.804     0.000
   117.250   283.220   -12.711    -2.338     0.000
   117.375   282.691    -5.594     2.102     0.000
   117.500   282.595    10.991    35.392     0.000
   117.625   283.129    39.714    73.844     0.000
   117.750   284.054    75.825   103.637     0.000
   117.875   285.066    74.056    90.572     0.000
   118.000   284.096    37.677    51.676     0.000
   118.125   282.348    -8.296    18.712     0.000
   118.250   279.970   -29.325    -1.565     0.000
   118.375   279.275   -24.947     1.957     0.000
   118.500   281.660    34.241    44.703     0.000
   118.625   286.476   149.937   129.845     0.000
   118.750   291.923   229.021   205.917     0.000
   118.875   294.547   190.675   193.823     0.000
   119.000   292.686    71.305   113.285     0.000
   119.125   289.231   -15.371    37.090     0.000
   119.250   285.556   -42.954    12.276     0.000
   119.375   284.542   -41.012    14.907     0.000
   119.500   286.593    22.053    50.310     0.000
   119.625   290.882   148.204   122.911     0.000
   119.750   295.684   243.511   187.715     0.000
   119.875   297.819   198.886   176.409     0.000
   120.000   296.992    61.292   106.648     0.000
   120.125   295.042   -48.767    42.250     0.000
   120.250   292.460   -76.478    21.101     0.000
   120.375   289.736   -59.606    19.504     0.000
   120.500   287.813    33.431    46.068     0.000
   120.625   288.207   179.453   110.296     0.000
   120.750   290.690   284.315   171.582     0.000
   120.875   292.477   233.633   162.271     0.000
   121.000   290.759    92.920    95.389     0.000
   121.125   287.630   -19.485    33.845     0.000
   121.250   284.370   -50.612    14.902     0.000
   121.375   283.043   -44.756    20.615     0.000
   121.500   282.229   -27.903    31.467     0.000
   121.625   281.489     3.625    50.147     0.000
   121.750   281.017    43.367    66.425     0.000
   121.875   280.918    62.200    66.727     0.000
   122.000   280.199    44.708    43.672     0.000
   122.125   279.075    12.653    16.782     0.000
   122.250   277.575    -6.933    -0.075     0.000
   122.375   277.444    -7.096     2.464     0.000
   122.500   279.304    21.528    31.462     0.000
   122.625   282.834   111.539    86.841     0.000
   122.750   286.273   166.664   127.584     0.000
   122.875   287.645   150.905   119.495     0.000
   123.000   285.881    55.433    63.849     0.000
   123.125   282.772    -4.976    18.601     0.000
   123.250   279.363   -17.913    -1.481     0.000
   123.375   277.527    -8.303     1.682     0.000
   123.500   279.509    49.639    46.101     0.000
   123.625   284.207   163.585   121.654     0.000
   123.750   289.767   244.671   178.658     0.000
   123.875   292.382   209.667   156.974     0.000
   124.000   290.882    81.871    85.329     0.000
   124.125   287.712   -14.486    25.925     0.000
   124.250   284.151   -45.115     4.107     0.000
   124.375   282.723   -34.569     5.118     0.000
   124.500   284.542    39.308    41.110     0.000
   124.625   288.830   170.403   115.401     0.000
   124.750   293.766   275.906   177.388     0.000
   124.875   295.732   226.684   165.402     0.000
   125.000   294.018    82.255    97.972     0.000
   125.125   290.832   -36.023    34.654     0.000
   125.250   287.377   -58.823    11.043     0.000
   125.375   285.273   -34.815     7.151     0.000
   125.500   285.682    29.163    32.443     0.000
   125.625   288.336   143.420    94.155     0.000
   125.750   291.995   228.212   157.534     0.000
   125.875   293.630   194.185   150.158     0.000
   126.000   291.454    81.358    89.371     0.000
   126.125   287.279    -6.535    24.006     0.000
   126.250   282.885   -23.576     2.592     0.000
   126.375   281.034   -15.367     4.003     0.000
   126.500   283.856    50.426    41.379     0.000
   126.625   289.420   168.997   116.543     0.000
   126.750   295.827   246.139   180.679     0.000
   126.875   298.746   193.832   166.663     0.000
   127.000   297.983    60.244    94.814     0.000
   127.125   295.662   -34.610    28.270     0.000
   127.250   292.977   -58.560     4.407     0.000
   127.375   291.211   -45.822     4.219     0.000
   127.500   291.766    14.662    45.708     0.000
   127.625   294.582   122.359   136.974     0.000
   127.750   298.850   203.403   221.630     0.000
   127.875   300.989   173.532   206.906     0.000
   128.000   299.347    71.227   115.013     0.000
   128.125   296.014   -12.220    25.345     0.000
   128.250   292.697   -32.670    -6.801     0.000
   128.375   291.380   -27.593    -5.761     0.000
   128.500   292.728    22.238    37.051     0.000
   128.625   296.562   128.611   128.237     0.000
   128.750   301.368   214.994   208.286     0.000
   128.875   303.543   186.573   189.394     0.000
   129.000   302.065    70.927   102.647     0.000
   129.125   299.152   -27.194    20.184     0.000
   129.250   296.678   -54.915    -3.778     0.000
   129.375   295.321   -47.436    -0.875     0.000
   129.500   295.999    13.875    47.937     0.000
   129.625   298.738   125.105   137.761     0.000
   129.750   302.463   208.481   210.154     0.000
   129.875   303.883   170.767   184.876     0.000
   130.000   302.404    57.221   100.270     0.000
   130.125   299.735   -32.784    24.571     0.000
   130.250   297.321   -55.291     2.682     0.000
   130.375   295.685   -45.575     3.608     0.000
   130.500   295.786    14.391    45.255     0.000
   130.625   297.272    96.177   106.428     0.000
   130.750   298.979   129.745   134.370     0.000
   130.875   298.655    87.319   100.765     0.000
   131.000   296.801    11.502    38.798     0.000
   131.125   294.752   -20.475     1.759     0.000
   131.250   293.325   -28.881    -9.930     0.000
   131.375   292.487   -22.582    -5.768     0.000
   131.500   292.936     1.614    31.212     0.000
   131.625   293.763    27.901    66.410     0.000
   131.750   294.200    40.366    78.879     0.000
   131.875   292.920    24.744    53.687     0.000
   132.000   290.953    -0.183    19.088     0.000
   132.125   289.203   -12.118     0.822     0.000
   132.250   288.093   -15.664    -5.376     0.000
   132.375   287.339    -8.169     2.613     0.000
   132.500   287.792    25.134    45.133     0.000
   132.625   289.968   114.299   128.578     0.000
   132.750   293.295   180.418   210.091     0.000
   132.875   295.299   159.961   197.928     0.000
   133.000   293.989    56.641   118.466     0.000
   133.125   290.698   -22.713    37.193     0.000
   133.250   287.238   -40.913    13.403     0.000
   133.375   285.295   -25.392    15.498     0.000
   133.500   284.606    10.153    29.894     0.000
   133.625   285.098    84.011    55.791     0.000
   133.750   286.507   153.260    83.576     0.000
   133.875   287.474   148.287    80.715     0.000
   134.000   286.679    73.306    54.257     0.000
   134.125   284.439    -0.141    24.028     0.000
   134.250   282.057   -22.894    11.790     0.000
   134.375   280.830   -15.653    16.090     0.000
   134.500   281.531    46.076    38.805     0.000
   134.625   283.833   171.897    87.353     0.000
   134.750   286.878   271.677   130.215     0.000
   134.875   288.591   238.766   124.678     0.000
   135.000   287.442   104.235    74.652     0.000
   135.125   284.576    -1.711    24.469     0.000
   135.250   281.232   -32.698     3.437     0.000
   135.375   279.699   -18.220     5.754     0.000
   135.500   280.957    50.308    36.677     0.000
   135.625   284.241   180.218    96.560     0.000
   135.750   288.160   278.962   146.449     0.000
   135.875   289.924   241.511   133.752     0.000
   136.000   288.669   109.114    77.410     0.000
   136.125   285.513     2.382    21.846     0.000
   136.250   281.966   -24.452     1.544     0.000
   136.375   280.072   -12.233     3.821     0.000
   136.500   281.647    64.911    41.408     0.000
   136.625   285.387   192.884   116.115     0.000
   136.750   290.017   285.727   178.700     0.000
   136.875   292.213   235.805   164.877     0.000
   137.000   290.943   104.432    93.474     0.000
   137.125   287.847     3.025    25.253     0.000
   137.250   284.089   -22.729     2.800     0.000
   137.375   282.363   -13.894     5.480     0.000
   137.500   284.062    43.689    42.102     0.000
   137.625   287.798   151.430   111.038     0.000
   137.750   292.180   237.074   171.922     0.000
   137.875   293.701   198.640   157.045     0.000
   138.000   292.537    80.421    92.374     0.000
   138.125   290.175   -17.434    31.855     0.000
   138.250   287.557   -38.917    15.681     0.000
   138.375   286.249   -25.644    14.830     0.000
   138.500   286.434    11.809    27.230     0.000
   138.625   288.378    64.265    52.777     0.000
   138.750   291.125   118.576    83.563     0.000
   138.875   292.671    99.699    76.316     0.000
   139.000   292.627    50.702    46.260     0.000
   139.125   291.996    -7.294    12.661     0.000
   139.250   291.659   -20.254     3.761     0.000
   139.375   291.989   -17.208     5.663     0.000
   139.500   292.755     4.109    22.321     0.000
   139.625   294.647    66.407    64.460     0.000
   139.750   296.625   103.417    88.613     0.000
   139.875   297.385    90.726    78.810     0.000
   140.000   296.396    25.608    37.488     0.000
   140.125   294.806   -15.566    13.532     0.000
   140.250   293.283   -23.047     8.503     0.000
   140.375   291.785   -14.319    10.010     0.000
   140.500   290.499     1.098    21.879     0.000
   140.625   290.436    35.104    68.137     0.000
   140.750   291.887    76.188   111.965     0.000
   140.875   293.454    82.258   121.492     0.000
   141.000   293.287    54.369    75.667     0.000
   141.125   291.842    10.621    27.460     0.000
   141.250   289.990    -5.592     2.659     0.000
   141.375   289.094    -4.753     4.797     0.000
   141.500   290.067    38.700    62.358     0.000
   141.625   293.358   125.675   175.484     0.000
   141.750   297.631   177.642   278.639     0.000
   141.875   300.129   143.173   264.105     0.000
   142.000   298.974    42.245   154.675     0.000
   142.125   296.440   -22.176    42.967     0.000
   142.250   293.948   -38.197    -3.612     0.000
   142.375   293.076   -25.942    -3.518     0.000
   142.500   294.016    25.381    53.483     0.000
   142.625   296.485   104.523   174.596     0.000
   142.750   299.850   150.729   293.919     0.000
   142.875   301.750   117.211   285.501     0.000
   143.000   299.998    35.902   171.606     0.000
   143.125   296.905   -20.157    52.303     0.000
   143.250   293.610   -32.871     6.743     0.000
   143.375   292.533   -23.361     7.552     0.000
   143.500   293.278    23.130    40.129     0.000
   143.625   295.330    81.887   107.394     0.000
   143.750   297.661   123.328   154.633     0.000
   143.875   297.641    94.451   134.935     0.000
   144.000   295.531    35.307    68.019     0.000
   144.125   292.800   -10.903    16.640     0.000
   144.250   291.006   -19.514    -0.393     0.000
   144.375   290.751   -15.532     4.301     0.000
   144.500   292.102     8.947    45.023     0.000
   144.625   295.110    72.131   130.340     0.000
   144.750   297.650   102.116   171.473     0.000
   144.875   297.851    85.424   147.497     0.000
   145.000   295.242    17.412    68.248     0.000
   145.125   291.846   -15.923    20.965     0.000
   145.250   289.395   -20.618     3.947     0.000
   145.375   288.386   -18.721     9.205     0.000
   145.500   289.005     7.155    66.977     0.000
   145.625   290.767    53.289   154.174     0.000
   145.750   292.432    91.995   211.785     0.000
   145.875   292.538    75.617   180.627     0.000
   146.000   290.757    25.705   103.461     0.000
   146.125   288.397   -14.088    39.515     0.000
   146.250   286.372   -27.343    16.610     0.000
   146.375   285.129   -21.512    15.325     0.000
   146.500   285.737    54.147    63.025     0.000
   146.625   288.106   171.042   163.017     0.000
   146.750   291.558   246.047   256.593     0.000
   146.875   293.542   191.413   240.486     0.000
   147.000   292.654    72.793   140.600     0.000
   147.125   290.314   -11.269    41.260     0.000
   147.250   288.006   -32.842     5.803     0.000
   147.375   287.381   -22.727     7.537     0.000
   147.500   288.622    31.096    43.964     0.000
   147.625   291.592    97.678   110.014     0.000
   147.750   295.543   151.592   184.591     0.000
   147.875   298.106   120.522   176.727     0.000
   148.000   297.672    53.108   109.684     0.000
   148.125   295.362    -4.693    28.112     0.000
   148.250   292.770   -21.339    -3.473     0.000
   148.375   291.489   -12.539     1.986     0.000
   148.500   291.918    17.305    45.901     0.000
   148.625   293.827    65.422   115.038     0.000
   148.750   296.452   105.001   183.604     0.000
   148.875   297.917    91.955   169.044     0.000
   149.000   297.219    44.064   101.570     0.000
   149.125   295.474     0.759    27.029     0.000
   149.250   294.110   -21.727     1.721     0.000
   149.375   294.132   -24.985     8.646     0.000
   149.500   295.918    18.472    76.403     0.000
   149.625   298.801    98.552   202.483     0.000
   149.750   301.915   158.962   310.420     0.000
   149.875   303.199   121.982   288.011     0.000
   150.000   302.172    30.408   170.102     0.000
   150.125   300.113   -43.749    62.270     0.000
   150.250   298.148   -64.821    21.940     0.000
   150.375   296.835   -51.912    17.362     0.000
   150.500   296.414     0.242    50.182     0.000
   150.625   297.176    63.240   118.322     0.000
   150.750   299.228   114.115   194.936     0.000
   150.875   300.827    84.538   194.489     0.000
   151.000   300.765    21.358   128.635     0.000
   151.125   299.414   -37.831    51.613     0.000
   151.250   297.014   -49.314    15.658     0.000
   151.375   294.502   -33.180    16.336     0.000
   151.500   293.500    20.768    74.902     0.000
   151.625   295.112   100.988   199.384     0.000
   151.750   298.427   154.900   318.481     0.000
   151.875   300.471   125.091   300.066     0.000
   152.000   299.262    45.815   175.418     0.000
   152.125   296.803   -12.142    52.838     0.000
   152.250   294.287   -23.419    10.718     0.000
   152.375   293.535   -16.401    13.359     0.000
   152.500   294.815    19.737    56.731     0.000
   152.625   297.922    83.863   166.276     0.000
   152.750   301.462   126.270   255.323     0.000
   152.875   303.063    98.842   248.197     0.000
   153.000   301.782    25.027   138.459     0.000
   153.125   299.327   -26.538    45.169     0.000
   153.250   296.828   -38.533     5.530     0.000
   153.375   295.512   -29.470     8.599     0.000
   153.500   296.187     1.491    70.038     0.000
   153.625   298.671    56.159   182.704     0.000
   153.750   301.910   100.395   293.235     0.000
   153.875   303.439    78.221   273.038     0.000
   154.000   302.332    13.280   166.620     0.000
   154.125   299.941   -41.384    50.650     0.000
   154.250   297.554   -54.319     8.615     0.000
   154.375   296.471   -45.363     9.221     0.000
   154.500   297.495    -8.740    73.449     0.000
   154.625   300.415    52.705   201.996     0.000
   154.750   303.974   105.102   314.273     0.000
   154.875   305.582    81.923   299.370     0.000
   155.000   304.115    14.089   176.062     0.000
   155.125   301.103   -42.558    57.773     0.000
   155.250   297.827   -53.628     7.588     0.000
   155.375   295.941   -36.395     8.720     0.000
   155.500   296.902     7.360    75.246     0.000
   155.625   300.087    78.974   199.196     0.000
   155.750   303.927   121.256   295.654     0.000
   155.875   305.208    91.244   276.148     0.000
   156.000   302.925    15.678   156.399     0.000
   156.125   299.329   -34.325    53.514     0.000
   156.250   295.555   -40.763     3.840     0.000
   156.375   293.714   -23.473     5.989     0.000
   156.500   295.294    21.628    77.207     0.000
   156.625   299.439    94.583   208.927     0.000
   156.750   304.291   148.668   325.048     0.000
   156.875   306.161   121.631   295.880     0.000
   157.000   304.303    39.781   168.650     0.000
   157.125   301.201   -31.054    47.486     0.000
   157.250   297.621   -50.868     3.248     0.000
   157.375   295.688   -36.209     6.244     0.000
   157.500   296.707    17.975    76.898     0.000
   157.625   300.421    96.251   210.842     0.000
   157.750   304.984    25.000   157.798     0.000
   157.875   307.825     8.000    20.000     0.000
